File: FTIR Data (PCL)/All Data/PCL_NaOH_3_1.CSV
3.991989e+002,0.000000e+000
4.020916e+002,0.000000e+000
4.049844e+002,0.000000e+000
4.078771e+002,0.000000e+000
4.107699e+002,0.000000e+000
4.136626e+002,0.000000e+000
4.165554e+002,0.000000e+000
4.194481e+002,0.000000e+000
4.223409e+002,0.000000e+000
4.252336e+002,0.000000e+000
4.281263e+002,0.000000e+000
4.310191e+002,0.000000e+000
4.339118e+002,0.000000e+000
4.368046e+002,0.000000e+000
4.396973e+002,0.000000e+000
4.425901e+002,0.000000e+000
4.454828e+002,0.000000e+000
4.483756e+002,0.000000e+000
4.512683e+002,0.000000e+000
4.541611e+002,0.000000e+000
4.570538e+002,0.000000e+000
4.599466e+002,0.000000e+000
4.628393e+002,0.000000e+000
4.657321e+002,0.000000e+000
4.686248e+002,0.000000e+000
4.715175e+002,0.000000e+000
4.744103e+002,0.000000e+000
4.773030e+002,0.000000e+000
4.801958e+002,0.000000e+000
4.830885e+002,0.000000e+000
4.859813e+002,0.000000e+000
4.888740e+002,0.000000e+000
4.917668e+002,0.000000e+000
4.946595e+002,0.000000e+000
4.975523e+002,0.000000e+000
5.004450e+002,0.000000e+000
5.033378e+002,0.000000e+000
5.062305e+002,0.000000e+000
5.091233e+002,0.000000e+000
5.120160e+002,0.000000e+000
5.149088e+002,0.000000e+000
5.178015e+002,0.000000e+000
5.206942e+002,0.000000e+000
5.235870e+002,0.000000e+000
5.264797e+002,0.000000e+000
5.293725e+002,0.000000e+000
5.322652e+002,0.000000e+000
5.351580e+002,0.000000e+000
5.380507e+002,0.000000e+000
5.409435e+002,0.000000e+000
5.438362e+002,0.000000e+000
5.467289e+002,0.000000e+000
5.496217e+002,8.348197e+001
5.525145e+002,8.552924e+001
5.554072e+002,8.824155e+001
5.582999e+002,8.600989e+001
5.611927e+002,8.589030e+001
5.640854e+002,8.405688e+001
5.669782e+002,8.267162e+001
5.698709e+002,8.098406e+001
5.727637e+002,8.132979e+001
5.756564e+002,7.783979e+001
5.785492e+002,7.871471e+001
5.814419e+002,7.934131e+001
5.843347e+002,7.671397e+001
5.872274e+002,7.905716e+001
5.901202e+002,8.208025e+001
5.930129e+002,8.216633e+001
5.959056e+002,8.380344e+001
5.987984e+002,8.384827e+001
6.016912e+002,8.368335e+001
6.045839e+002,8.414425e+001
6.074766e+002,8.461626e+001
6.103694e+002,8.529349e+001
6.132621e+002,8.463332e+001
6.161548e+002,8.600670e+001
6.190476e+002,8.554751e+001
6.219404e+002,8.684808e+001
6.248331e+002,8.589610e+001
6.277258e+002,8.617909e+001
6.306186e+002,8.556416e+001
6.335114e+002,8.602129e+001
6.364041e+002,8.616321e+001
6.392968e+002,8.562695e+001
6.421896e+002,8.572692e+001
6.450823e+002,8.610462e+001
6.479751e+002,8.609403e+001
6.508679e+002,8.596079e+001
6.537606e+002,8.627335e+001
6.566533e+002,8.642688e+001
6.595461e+002,8.623804e+001
6.624388e+002,8.621501e+001
6.653315e+002,8.613683e+001
6.682243e+002,8.575613e+001
6.711171e+002,8.593204e+001
6.740098e+002,8.580701e+001
6.769025e+002,8.557560e+001
6.797953e+002,8.514399e+001
6.826880e+002,8.467610e+001
6.855808e+002,8.425222e+001
6.884735e+002,8.377338e+001
6.913663e+002,8.280619e+001
6.942590e+002,8.168549e+001
6.971518e+002,8.045628e+001
7.000445e+002,7.872978e+001
7.029373e+002,7.690054e+001
7.058300e+002,7.459145e+001
7.087228e+002,7.308572e+001
7.116155e+002,7.370551e+001
7.145082e+002,7.535279e+001
7.174010e+002,7.602816e+001
7.202938e+002,7.510082e+001
7.231865e+002,7.019454e+001
7.260792e+002,6.240154e+001
7.289720e+002,6.018006e+001
7.318647e+002,5.728427e+001
7.347575e+002,6.427792e+001
7.376502e+002,7.219609e+001
7.405430e+002,7.761626e+001
7.434357e+002,8.143671e+001
7.463285e+002,8.373473e+001
7.492212e+002,8.521664e+001
7.521140e+002,8.624422e+001
7.550067e+002,8.702748e+001
7.578995e+002,8.759319e+001
7.607922e+002,8.762414e+001
7.636849e+002,8.722250e+001
7.665777e+002,8.637617e+001
7.694705e+002,8.560224e+001
7.723632e+002,8.494176e+001
7.752559e+002,8.548767e+001
7.781487e+002,8.620468e+001
7.810414e+002,8.696445e+001
7.839341e+002,8.743870e+001
7.868269e+002,8.766486e+001
7.897197e+002,8.762808e+001
7.926124e+002,8.781493e+001
7.955051e+002,8.773272e+001
7.983979e+002,8.763301e+001
8.012906e+002,8.756229e+001
8.041834e+002,8.754628e+001
8.070761e+002,8.738680e+001
8.099689e+002,8.745406e+001
8.128616e+002,8.755595e+001
8.157544e+002,8.750763e+001
8.186472e+002,8.751042e+001
8.215399e+002,8.730196e+001
8.244326e+002,8.713879e+001
8.273254e+002,8.676701e+001
8.302181e+002,8.610899e+001
8.331108e+002,8.481736e+001
8.360036e+002,8.258843e+001
8.388964e+002,7.928679e+001
8.417891e+002,7.991661e+001
8.446818e+002,8.404247e+001
8.475746e+002,8.533836e+001
8.504673e+002,8.573942e+001
8.533601e+002,8.562102e+001
8.562528e+002,8.552274e+001
8.591456e+002,8.561490e+001
8.620383e+002,8.535464e+001
8.649311e+002,8.521083e+001
8.678238e+002,8.502636e+001
8.707166e+002,8.486681e+001
8.736093e+002,8.485765e+001
8.765021e+002,8.485342e+001
8.793948e+002,8.461597e+001
8.822875e+002,8.452477e+001
8.851803e+002,8.433583e+001
8.880731e+002,8.420462e+001
8.909658e+002,8.406406e+001
8.938585e+002,8.398387e+001
8.967513e+002,8.385197e+001
8.996440e+002,8.356274e+001
9.025368e+002,8.326247e+001
9.054295e+002,8.274955e+001
9.083223e+002,8.235746e+001
9.112150e+002,8.162025e+001
9.141078e+002,8.092912e+001
9.170005e+002,8.019419e+001
9.198932e+002,7.917947e+001
9.227860e+002,7.771529e+001
9.256788e+002,7.560194e+001
9.285715e+002,7.261844e+001
9.314642e+002,6.907007e+001
9.343570e+002,6.778566e+001
9.372498e+002,7.102941e+001
9.401425e+002,7.397816e+001
9.430352e+002,7.427953e+001
9.459280e+002,7.286032e+001
9.488207e+002,7.032358e+001
9.517134e+002,6.673140e+001
9.546062e+002,6.253796e+001
9.574990e+002,5.791567e+001
9.603917e+002,5.489474e+001
9.632844e+002,5.844870e+001
9.661772e+002,6.627643e+001
9.690699e+002,7.084517e+001
9.719627e+002,7.328854e+001
9.748554e+002,7.495802e+001
9.777482e+002,7.661875e+001
9.806409e+002,7.764176e+001
9.835337e+002,7.782178e+001
9.864265e+002,7.767847e+001
9.893192e+002,7.742082e+001
9.922119e+002,7.720717e+001
9.951047e+002,7.718033e+001
9.979974e+002,7.713472e+001
1.000890e+003,7.688490e+001
1.003783e+003,7.652487e+001
1.006676e+003,7.600554e+001
1.009568e+003,7.533881e+001
1.012461e+003,7.459241e+001
1.015354e+003,7.375690e+001
1.018247e+003,7.270170e+001
1.021139e+003,7.149795e+001
1.024032e+003,6.988907e+001
1.026925e+003,6.792693e+001
1.029818e+003,6.545055e+001
1.032710e+003,6.274397e+001
1.035603e+003,5.915575e+001
1.038496e+003,5.504825e+001
1.041389e+003,5.063545e+001
1.044281e+003,4.731763e+001
1.047174e+003,4.852939e+001
1.050067e+003,5.633441e+001
1.052960e+003,6.406082e+001
1.055852e+003,6.841635e+001
1.058745e+003,6.940511e+001
1.061638e+003,6.730054e+001
1.064531e+003,6.456512e+001
1.067423e+003,6.581924e+001
1.070316e+003,7.014951e+001
1.073209e+003,7.242952e+001
1.076102e+003,7.253788e+001
1.078994e+003,7.126683e+001
1.081887e+003,6.907364e+001
1.084780e+003,6.656358e+001
1.087673e+003,6.417920e+001
1.090565e+003,6.220617e+001
1.093458e+003,6.093950e+001
1.096351e+003,6.025747e+001
1.099244e+003,5.963629e+001
1.102136e+003,5.823452e+001
1.105029e+003,5.592768e+001
1.107922e+003,5.479026e+001
1.110815e+003,5.862471e+001
1.113707e+003,6.501764e+001
1.116600e+003,6.982365e+001
1.119493e+003,7.187897e+001
1.122385e+003,7.149074e+001
1.125278e+003,6.976606e+001
1.128171e+003,6.724897e+001
1.131064e+003,6.435176e+001
1.133957e+003,6.089703e+001
1.136849e+003,5.695058e+001
1.139742e+003,5.244619e+001
1.142635e+003,4.750605e+001
1.145527e+003,4.225457e+001
1.148420e+003,3.715442e+001
1.151313e+003,3.270288e+001
1.154206e+003,2.927065e+001
1.157099e+003,2.710772e+001
1.159991e+003,2.610911e+001
1.162884e+003,2.594519e+001
1.165777e+003,2.651057e+001
1.168669e+003,2.718073e+001
1.171562e+003,2.805363e+001
1.174455e+003,2.898898e+001
1.177348e+003,3.001520e+001
1.180240e+003,3.142239e+001
1.183133e+003,3.250605e+001
1.186026e+003,3.346685e+001
1.188919e+003,3.638962e+001
1.191811e+003,4.195767e+001
1.194704e+003,4.972158e+001
1.197597e+003,5.842326e+001
1.200490e+003,6.541790e+001
1.203382e+003,6.904639e+001
1.206275e+003,7.089060e+001
1.209168e+003,7.178587e+001
1.212061e+003,7.206281e+001
1.214953e+003,7.178135e+001
1.217846e+003,7.098997e+001
1.220739e+003,6.963581e+001
1.223632e+003,6.746514e+001
1.226524e+003,6.381410e+001
1.229417e+003,5.813515e+001
1.232310e+003,5.056272e+001
1.235203e+003,4.311263e+001
1.238095e+003,3.993032e+001
1.240988e+003,4.196878e+001
1.243881e+003,4.670369e+001
1.246774e+003,5.589495e+001
1.249666e+003,6.650204e+001
1.252559e+003,7.265879e+001
1.255452e+003,7.539960e+001
1.258345e+003,7.695281e+001
1.261237e+003,7.810059e+001
1.264130e+003,7.888136e+001
1.267023e+003,7.924069e+001
1.269916e+003,7.910244e+001
1.272808e+003,7.847277e+001
1.275701e+003,7.760951e+001
1.278594e+003,7.662714e+001
1.281487e+003,7.532413e+001
1.284379e+003,7.339742e+001
1.287272e+003,6.974318e+001
1.290165e+003,6.217027e+001
1.293057e+003,5.646993e+001
1.295950e+003,6.114771e+001
1.298843e+003,6.900306e+001
1.301736e+003,7.478446e+001
1.304629e+003,7.774861e+001
1.307521e+003,8.023034e+001
1.310414e+003,8.231708e+001
1.313307e+003,8.363418e+001
1.316200e+003,8.442708e+001
1.319092e+003,8.478151e+001
1.321985e+003,8.479621e+001
1.324878e+003,8.489651e+001
1.327771e+003,8.559735e+001
1.330663e+003,8.649222e+001
1.333556e+003,8.699383e+001
1.336449e+003,8.692020e+001
1.339342e+003,8.627424e+001
1.342234e+003,8.490297e+001
1.345127e+003,8.286552e+001
1.348020e+003,8.009878e+001
1.350912e+003,7.663953e+001
1.353805e+003,7.348605e+001
1.356698e+003,7.087130e+001
1.359591e+003,6.684517e+001
1.362484e+003,6.246843e+001
1.365376e+003,6.047618e+001
1.368269e+003,6.306629e+001
1.371162e+003,6.774358e+001
1.374054e+003,7.021208e+001
1.376947e+003,7.414461e+001
1.379840e+003,8.015208e+001
1.382733e+003,8.381758e+001
1.385625e+003,8.456602e+001
1.388518e+003,8.319343e+001
1.391411e+003,8.070710e+001
1.394304e+003,7.777859e+001
1.397196e+003,7.600912e+001
1.400089e+003,7.897655e+001
1.402982e+003,8.311820e+001
1.405875e+003,8.555254e+001
1.408767e+003,8.492304e+001
1.411660e+003,8.115864e+001
1.414553e+003,7.681561e+001
1.417446e+003,7.542578e+001
1.420338e+003,7.570468e+001
1.423231e+003,8.124914e+001
1.426124e+003,8.611102e+001
1.429017e+003,8.807423e+001
1.431909e+003,8.820516e+001
1.434802e+003,8.725255e+001
1.437695e+003,8.709552e+001
1.440588e+003,8.795850e+001
1.443480e+003,8.854303e+001
1.446373e+003,8.824918e+001
1.449266e+003,8.766898e+001
1.452159e+003,8.659753e+001
1.455051e+003,8.521101e+001
1.457944e+003,8.244876e+001
1.460837e+003,8.161200e+001
1.463730e+003,8.012250e+001
1.466622e+003,8.023708e+001
1.469515e+003,7.647359e+001
1.472408e+003,7.939351e+001
1.475301e+003,8.340899e+001
1.478193e+003,8.430212e+001
1.481086e+003,8.929630e+001
1.483979e+003,9.291230e+001
1.486872e+003,9.464485e+001
1.489764e+003,9.551887e+001
1.492657e+003,9.590590e+001
1.495550e+003,9.625639e+001
1.498443e+003,9.642308e+001
1.501335e+003,9.642963e+001
1.504228e+003,9.653219e+001
1.507121e+003,9.713202e+001
1.510014e+003,9.676365e+001
1.512906e+003,9.671654e+001
1.515799e+003,9.679305e+001
1.518692e+003,9.689169e+001
1.521584e+003,9.697875e+001
1.524477e+003,9.692688e+001
1.527370e+003,9.683460e+001
1.530263e+003,9.683638e+001
1.533156e+003,9.682265e+001
1.536048e+003,9.674155e+001
1.538941e+003,9.694226e+001
1.541834e+003,9.688216e+001
1.544726e+003,9.685474e+001
1.547619e+003,9.663300e+001
1.550512e+003,9.671263e+001
1.553405e+003,9.658537e+001
1.556297e+003,9.661695e+001
1.559190e+003,9.722727e+001
1.562083e+003,9.649005e+001
1.564976e+003,9.652028e+001
1.567869e+003,9.650862e+001
1.570761e+003,9.647662e+001
1.573654e+003,9.648375e+001
1.576547e+003,9.656529e+001
1.579439e+003,9.630517e+001
1.582332e+003,9.622768e+001
1.585225e+003,9.627780e+001
1.588118e+003,9.620047e+001
1.591010e+003,9.608407e+001
1.593903e+003,9.605161e+001
1.596796e+003,9.588732e+001
1.599689e+003,9.582388e+001
1.602581e+003,9.568007e+001
1.605474e+003,9.557548e+001
1.608367e+003,9.541701e+001
1.611260e+003,9.515415e+001
1.614152e+003,9.504665e+001
1.617045e+003,9.509296e+001
1.619938e+003,9.469016e+001
1.622831e+003,9.460236e+001
1.625723e+003,9.423178e+001
1.628616e+003,9.397088e+001
1.631509e+003,9.372057e+001
1.634402e+003,9.366800e+001
1.637294e+003,9.360944e+001
1.640187e+003,9.326266e+001
1.643080e+003,9.316978e+001
1.645973e+003,9.308221e+001
1.648865e+003,9.289722e+001
1.651758e+003,9.246207e+001
1.654651e+003,9.232133e+001
1.657544e+003,9.166137e+001
1.660436e+003,9.120979e+001
1.663329e+003,9.059168e+001
1.666222e+003,8.966229e+001
1.669115e+003,8.886259e+001
1.672007e+003,8.748552e+001
1.674900e+003,8.607439e+001
1.677793e+003,8.393844e+001
1.680686e+003,8.139082e+001
1.683578e+003,7.931953e+001
1.686471e+003,7.686296e+001
1.689364e+003,7.504958e+001
1.692257e+003,7.330517e+001
1.695149e+003,7.148154e+001
1.698042e+003,6.865091e+001
1.700935e+003,6.508956e+001
1.703828e+003,6.168662e+001
1.706720e+003,5.615252e+001
1.709613e+003,4.937924e+001
1.712506e+003,4.028742e+001
1.715399e+003,2.881709e+001
1.718291e+003,1.859014e+001
1.721184e+003,1.632781e+001
1.724077e+003,2.203589e+001
1.726969e+003,3.195021e+001
1.729862e+003,3.951359e+001
1.732755e+003,4.459482e+001
1.735648e+003,5.217323e+001
1.738541e+003,5.871461e+001
1.741433e+003,6.772672e+001
1.744326e+003,7.634169e+001
1.747219e+003,8.308813e+001
1.750111e+003,8.769553e+001
1.753004e+003,9.065492e+001
1.755897e+003,9.212901e+001
1.758790e+003,9.312094e+001
1.761682e+003,9.384998e+001
1.764575e+003,9.411382e+001
1.767468e+003,9.451958e+001
1.770361e+003,9.483894e+001
1.773253e+003,9.541119e+001
1.776146e+003,9.558422e+001
1.779039e+003,9.587535e+001
1.781932e+003,9.615314e+001
1.784824e+003,9.647549e+001
1.787717e+003,9.669336e+001
1.790610e+003,9.688916e+001
1.793503e+003,9.727345e+001
1.796395e+003,9.735906e+001
1.799288e+003,9.758878e+001
1.802181e+003,9.769225e+001
1.805074e+003,9.778853e+001
1.807966e+003,9.782151e+001
1.810859e+003,9.802667e+001
1.813752e+003,9.814914e+001
1.816645e+003,9.828351e+001
1.819537e+003,9.824530e+001
1.822430e+003,9.823733e+001
1.825323e+003,9.839450e+001
1.828216e+003,9.843181e+001
1.831108e+003,9.847603e+001
1.834001e+003,9.844449e+001
1.836894e+003,9.838988e+001
1.839787e+003,9.840370e+001
1.842679e+003,9.848927e+001
1.845572e+003,9.854263e+001
1.848465e+003,9.858842e+001
1.851358e+003,9.861917e+001
1.854250e+003,9.864310e+001
1.857143e+003,9.875781e+001
1.860036e+003,9.872425e+001
1.862929e+003,9.876189e+001
1.865821e+003,9.874024e+001
1.868714e+003,9.874422e+001
1.871607e+003,9.872916e+001
1.874500e+003,9.878001e+001
1.877392e+003,9.877609e+001
1.880285e+003,9.876998e+001
1.883178e+003,9.868760e+001
1.886071e+003,9.863992e+001
1.888963e+003,9.882362e+001
1.891856e+003,9.873751e+001
1.894749e+003,9.882806e+001
1.897642e+003,9.881001e+001
1.900534e+003,9.875936e+001
1.903427e+003,9.869630e+001
1.906320e+003,9.877804e+001
1.909213e+003,9.871175e+001
1.912105e+003,9.868049e+001
1.914998e+003,9.864777e+001
1.917891e+003,9.839223e+001
1.920784e+003,9.868168e+001
1.923676e+003,9.882617e+001
1.926569e+003,9.870562e+001
1.929462e+003,9.865625e+001
1.932354e+003,9.881076e+001
1.935247e+003,9.881686e+001
1.938140e+003,9.888729e+001
1.941033e+003,9.888585e+001
1.943926e+003,9.876629e+001
1.946818e+003,9.882295e+001
1.949711e+003,9.888233e+001
1.952604e+003,9.880640e+001
1.955496e+003,9.896029e+001
1.958389e+003,9.895657e+001
1.961282e+003,9.862038e+001
1.964175e+003,9.873830e+001
1.967068e+003,9.891155e+001
1.969960e+003,9.902805e+001
1.972853e+003,9.887522e+001
1.975746e+003,9.906301e+001
1.978638e+003,9.851926e+001
1.981531e+003,9.860664e+001
1.984424e+003,9.883732e+001
1.987317e+003,9.855162e+001
1.990209e+003,9.871070e+001
1.993102e+003,9.881001e+001
1.995995e+003,9.886259e+001
1.998888e+003,9.887801e+001
2.001780e+003,9.860449e+001
2.004673e+003,9.885886e+001
2.007566e+003,9.877420e+001
2.010459e+003,9.851732e+001
2.013351e+003,9.843983e+001
2.016244e+003,9.889835e+001
2.019137e+003,9.880293e+001
2.022030e+003,9.863393e+001
2.024922e+003,9.858836e+001
2.027815e+003,9.882644e+001
2.030708e+003,9.874263e+001
2.033601e+003,9.862014e+001
2.036493e+003,9.882790e+001
2.039386e+003,9.858601e+001
2.042279e+003,9.831354e+001
2.045172e+003,9.861712e+001
2.048064e+003,9.865575e+001
2.050957e+003,9.838032e+001
2.053850e+003,9.863841e+001
2.056743e+003,9.861052e+001
2.059635e+003,9.870819e+001
2.062528e+003,9.872824e+001
2.065421e+003,9.851045e+001
2.068314e+003,9.855401e+001
2.071206e+003,9.855506e+001
2.074099e+003,9.836015e+001
2.076992e+003,9.850283e+001
2.079885e+003,9.851834e+001
2.082777e+003,9.834412e+001
2.085670e+003,9.843773e+001
2.088563e+003,9.845679e+001
2.091456e+003,9.849776e+001
2.094348e+003,9.846722e+001
2.097241e+003,9.818444e+001
2.100134e+003,9.827289e+001
2.103027e+003,9.842942e+001
2.105919e+003,9.859099e+001
2.108812e+003,9.844910e+001
2.111705e+003,9.843463e+001
2.114598e+003,9.856467e+001
2.117490e+003,9.873277e+001
2.120383e+003,9.880217e+001
2.123276e+003,9.866373e+001
2.126168e+003,9.882677e+001
2.129061e+003,9.910475e+001
2.131954e+003,9.915240e+001
2.134847e+003,9.907383e+001
2.137740e+003,9.921942e+001
2.140632e+003,9.891413e+001
2.143525e+003,9.891969e+001
2.146418e+003,9.919037e+001
2.149311e+003,9.904079e+001
2.152203e+003,9.915960e+001
2.155096e+003,9.911747e+001
2.157989e+003,9.919415e+001
2.160882e+003,9.817801e+001
2.163774e+003,9.833195e+001
2.166667e+003,9.842378e+001
2.169560e+003,9.862932e+001
2.172452e+003,9.874485e+001
2.175345e+003,9.883502e+001
2.178238e+003,9.909983e+001
2.181131e+003,9.888018e+001
2.184023e+003,9.887561e+001
2.186916e+003,9.860710e+001
2.189809e+003,9.872782e+001
2.192702e+003,9.894071e+001
2.195594e+003,9.883762e+001
2.198487e+003,9.890333e+001
2.201380e+003,9.881822e+001
2.204273e+003,9.883844e+001
2.207166e+003,9.886192e+001
2.210058e+003,9.872829e+001
2.212951e+003,9.893797e+001
2.215844e+003,9.882642e+001
2.218736e+003,9.883253e+001
2.221629e+003,9.874904e+001
2.224522e+003,9.879353e+001
2.227415e+003,9.891474e+001
2.230307e+003,9.878717e+001
2.233200e+003,9.891245e+001
2.236093e+003,9.873207e+001
2.238986e+003,9.877592e+001
2.241878e+003,9.894317e+001
2.244771e+003,9.882071e+001
2.247664e+003,9.894969e+001
2.250557e+003,9.878722e+001
2.253449e+003,9.883943e+001
2.256342e+003,9.889848e+001
2.259235e+003,9.895265e+001
2.262128e+003,9.868745e+001
2.265020e+003,9.879095e+001
2.267913e+003,9.890076e+001
2.270806e+003,9.869884e+001
2.273699e+003,9.870133e+001
2.276591e+003,9.863236e+001
2.279484e+003,9.877314e+001
2.282377e+003,9.865261e+001
2.285270e+003,9.847772e+001
2.288162e+003,9.861556e+001
2.291055e+003,9.853702e+001
2.293948e+003,9.866761e+001
2.296841e+003,9.862426e+001
2.299733e+003,9.867807e+001
2.302626e+003,9.863702e+001
2.305519e+003,9.850180e+001
2.308412e+003,9.849522e+001
2.311304e+003,9.862755e+001
2.314197e+003,9.856847e+001
2.317090e+003,9.839671e+001
2.319983e+003,9.837915e+001
2.322875e+003,9.828835e+001
2.325768e+003,9.852108e+001
2.328661e+003,9.858401e+001
2.331553e+003,9.850062e+001
2.334446e+003,9.846937e+001
2.337339e+003,9.841443e+001
2.340232e+003,9.853862e+001
2.343125e+003,9.822956e+001
2.346017e+003,9.839613e+001
2.348910e+003,9.843400e+001
2.351803e+003,9.844650e+001
2.354696e+003,9.849854e+001
2.357588e+003,9.855701e+001
2.360481e+003,9.869951e+001
2.363374e+003,9.871588e+001
2.366267e+003,9.910388e+001
2.369159e+003,9.869674e+001
2.372052e+003,9.873982e+001
2.374945e+003,9.883094e+001
2.377837e+003,9.897209e+001
2.380730e+003,9.894775e+001
2.383623e+003,9.901514e+001
2.386516e+003,9.901408e+001
2.389408e+003,9.904905e+001
2.392301e+003,9.893799e+001
2.395194e+003,9.897283e+001
2.398087e+003,9.893111e+001
2.400979e+003,9.895928e+001
2.403872e+003,9.891213e+001
2.406765e+003,9.885833e+001
2.409658e+003,9.882549e+001
2.412551e+003,9.882752e+001
2.415443e+003,9.880488e+001
2.418336e+003,9.877895e+001
2.421229e+003,9.885105e+001
2.424121e+003,9.881290e+001
2.427014e+003,9.886967e+001
2.429907e+003,9.896465e+001
2.432800e+003,9.891669e+001
2.435692e+003,9.894401e+001
2.438585e+003,9.892033e+001
2.441478e+003,9.893279e+001
2.444371e+003,9.895947e+001
2.447263e+003,9.894626e+001
2.450156e+003,9.899618e+001
2.453049e+003,9.894280e+001
2.455942e+003,9.889214e+001
2.458834e+003,9.896168e+001
2.461727e+003,9.897460e+001
2.464620e+003,9.886514e+001
2.467513e+003,9.884148e+001
2.470405e+003,9.895822e+001
2.473298e+003,9.887566e+001
2.476191e+003,9.888416e+001
2.479084e+003,9.887846e+001
2.481976e+003,9.892030e+001
2.484869e+003,9.892983e+001
2.487762e+003,9.892530e+001
2.490655e+003,9.899513e+001
2.493547e+003,9.890698e+001
2.496440e+003,9.886182e+001
2.499333e+003,9.893618e+001
2.502226e+003,9.889545e+001
2.505118e+003,9.896656e+001
2.508011e+003,9.900567e+001
2.510904e+003,9.896642e+001
2.513797e+003,9.893191e+001
2.516689e+003,9.889959e+001
2.519582e+003,9.890119e+001
2.522475e+003,9.873215e+001
2.525368e+003,9.877141e+001
2.528260e+003,9.889644e+001
2.531153e+003,9.867852e+001
2.534046e+003,9.876834e+001
2.536938e+003,9.876522e+001
2.539831e+003,9.869419e+001
2.542724e+003,9.876162e+001
2.545617e+003,9.876536e+001
2.548510e+003,9.888504e+001
2.551402e+003,9.881100e+001
2.554295e+003,9.887444e+001
2.557188e+003,9.881191e+001
2.560081e+003,9.877901e+001
2.562973e+003,9.884207e+001
2.565866e+003,9.869834e+001
2.568759e+003,9.884223e+001
2.571652e+003,9.870850e+001
2.574544e+003,9.874043e+001
2.577437e+003,9.864663e+001
2.580330e+003,9.871338e+001
2.583222e+003,9.874561e+001
2.586115e+003,9.880020e+001
2.589008e+003,9.877893e+001
2.591901e+003,9.876105e+001
2.594793e+003,9.878938e+001
2.597686e+003,9.867596e+001
2.600579e+003,9.873501e+001
2.603472e+003,9.871316e+001
2.606365e+003,9.862709e+001
2.609257e+003,9.865620e+001
2.612150e+003,9.866756e+001
2.615043e+003,9.863803e+001
2.617936e+003,9.859359e+001
2.620828e+003,9.864119e+001
2.623721e+003,9.868084e+001
2.626614e+003,9.857452e+001
2.629506e+003,9.854430e+001
2.632399e+003,9.856726e+001
2.635292e+003,9.851198e+001
2.638185e+003,9.856075e+001
2.641077e+003,9.850594e+001
2.643970e+003,9.841756e+001
2.646863e+003,9.843140e+001
2.649756e+003,9.843722e+001
2.652648e+003,9.845574e+001
2.655541e+003,9.845151e+001
2.658434e+003,9.846519e+001
2.661327e+003,9.850159e+001
2.664219e+003,9.848307e+001
2.667112e+003,9.853690e+001
2.670005e+003,9.851843e+001
2.672898e+003,9.853986e+001
2.675790e+003,9.844474e+001
2.678683e+003,9.845335e+001
2.681576e+003,9.847224e+001
2.684469e+003,9.845669e+001
2.687361e+003,9.844523e+001
2.690254e+003,9.845542e+001
2.693147e+003,9.848394e+001
2.696040e+003,9.846236e+001
2.698932e+003,9.843253e+001
2.701825e+003,9.846107e+001
2.704718e+003,9.841198e+001
2.707611e+003,9.835995e+001
2.710503e+003,9.839146e+001
2.713396e+003,9.834947e+001
2.716289e+003,9.837025e+001
2.719182e+003,9.840893e+001
2.722074e+003,9.837620e+001
2.724967e+003,9.837544e+001
2.727860e+003,9.840318e+001
2.730753e+003,9.831023e+001
2.733645e+003,9.833242e+001
2.736538e+003,9.828297e+001
2.739431e+003,9.833157e+001
2.742323e+003,9.835072e+001
2.745216e+003,9.827426e+001
2.748109e+003,9.818302e+001
2.751002e+003,9.823059e+001
2.753895e+003,9.818214e+001
2.756787e+003,9.819403e+001
2.759680e+003,9.818638e+001
2.762573e+003,9.817387e+001
2.765466e+003,9.810068e+001
2.768358e+003,9.800185e+001
2.771251e+003,9.807757e+001
2.774144e+003,9.798842e+001
2.777037e+003,9.800540e+001
2.779929e+003,9.795850e+001
2.782822e+003,9.792750e+001
2.785715e+003,9.793625e+001
2.788607e+003,9.787981e+001
2.791500e+003,9.780029e+001
2.794393e+003,9.781895e+001
2.797286e+003,9.770657e+001
2.800178e+003,9.761675e+001
2.803071e+003,9.755643e+001
2.805964e+003,9.747562e+001
2.808857e+003,9.728194e+001
2.811750e+003,9.714855e+001
2.814642e+003,9.693645e+001
2.817535e+003,9.673106e+001
2.820428e+003,9.660310e+001
2.823321e+003,9.635357e+001
2.826213e+003,9.611884e+001
2.829106e+003,9.589941e+001
2.831999e+003,9.563692e+001
2.834891e+003,9.532616e+001
2.837784e+003,9.471052e+001
2.840677e+003,9.395699e+001
2.843570e+003,9.300183e+001
2.846462e+003,9.165361e+001
2.849355e+003,8.980807e+001
2.852248e+003,8.785175e+001
2.855141e+003,8.563641e+001
2.858033e+003,8.337608e+001
2.860926e+003,8.135155e+001
2.863819e+003,7.997933e+001
2.866712e+003,8.026006e+001
2.869604e+003,8.167442e+001
2.872497e+003,8.403857e+001
2.875390e+003,8.621975e+001
2.878283e+003,8.772012e+001
2.881175e+003,8.851295e+001
2.884068e+003,8.856510e+001
2.886961e+003,8.784569e+001
2.889854e+003,8.650013e+001
2.892746e+003,8.481411e+001
2.895639e+003,8.426448e+001
2.898532e+003,8.488547e+001
2.901425e+003,8.492434e+001
2.904317e+003,8.419933e+001
2.907210e+003,8.323182e+001
2.910103e+003,8.236320e+001
2.912996e+003,8.150448e+001
2.915888e+003,8.056091e+001
2.918781e+003,7.917356e+001
2.921674e+003,7.765651e+001
2.924567e+003,7.645840e+001
2.927459e+003,7.563675e+001
2.930352e+003,7.482573e+001
2.933245e+003,7.345659e+001
2.936137e+003,7.248088e+001
2.939030e+003,7.197530e+001
2.941923e+003,7.151945e+001
2.944816e+003,7.146766e+001
2.947708e+003,7.240318e+001
2.950601e+003,7.408913e+001
2.953494e+003,7.552374e+001
2.956387e+003,7.692036e+001
2.959280e+003,7.914805e+001
2.962172e+003,8.179423e+001
2.965065e+003,8.409894e+001
2.967958e+003,8.614886e+001
2.970851e+003,8.824137e+001
2.973743e+003,9.019886e+001
2.976636e+003,9.179448e+001
2.979529e+003,9.305606e+001
2.982422e+003,9.412852e+001
2.985314e+003,9.488502e+001
2.988207e+003,9.553870e+001
2.991100e+003,9.603706e+001
2.993992e+003,9.653032e+001
2.996885e+003,9.676534e+001
2.999778e+003,9.712593e+001
3.002671e+003,9.742238e+001
3.005563e+003,9.756454e+001
3.008456e+003,9.771714e+001
3.011349e+003,9.788216e+001
3.014242e+003,9.792461e+001
3.017135e+003,9.796193e+001
3.020027e+003,9.802468e+001
3.022920e+003,9.817966e+001
3.025813e+003,9.817956e+001
3.028706e+003,9.823589e+001
3.031598e+003,9.816941e+001
3.034491e+003,9.830524e+001
3.037384e+003,9.836555e+001
3.040276e+003,9.834206e+001
3.043169e+003,9.823045e+001
3.046062e+003,9.834375e+001
3.048955e+003,9.843767e+001
3.051847e+003,9.843739e+001
3.054740e+003,9.837617e+001
3.057633e+003,9.839190e+001
3.060526e+003,9.844370e+001
3.063418e+003,9.833013e+001
3.066311e+003,9.841022e+001
3.069204e+003,9.840797e+001
3.072097e+003,9.850394e+001
3.074990e+003,9.847070e+001
3.077882e+003,9.842434e+001
3.080775e+003,9.849667e+001
3.083668e+003,9.844186e+001
3.086560e+003,9.854904e+001
3.089453e+003,9.856895e+001
3.092346e+003,9.848820e+001
3.095239e+003,9.851016e+001
3.098131e+003,9.850523e+001
3.101024e+003,9.860136e+001
3.103917e+003,9.859232e+001
3.106810e+003,9.848252e+001
3.109702e+003,9.845084e+001
3.112595e+003,9.853805e+001
3.115488e+003,9.857079e+001
3.118381e+003,9.860934e+001
3.121273e+003,9.853326e+001
3.124166e+003,9.852423e+001
3.127059e+003,9.847239e+001
3.129952e+003,9.852233e+001
3.132844e+003,9.853806e+001
3.135737e+003,9.852042e+001
3.138630e+003,9.857135e+001
3.141522e+003,9.855629e+001
3.144415e+003,9.856127e+001
3.147308e+003,9.861890e+001
3.150201e+003,9.858560e+001
3.153094e+003,9.847643e+001
3.155986e+003,9.851706e+001
3.158879e+003,9.858860e+001
3.161772e+003,9.860226e+001
3.164665e+003,9.858572e+001
3.167557e+003,9.862557e+001
3.170450e+003,9.855787e+001
3.173343e+003,9.857961e+001
3.176236e+003,9.845903e+001
3.179128e+003,9.860342e+001
3.182021e+003,9.860397e+001
3.184914e+003,9.851076e+001
3.187806e+003,9.863554e+001
3.190699e+003,9.850368e+001
3.193592e+003,9.849175e+001
3.196485e+003,9.854410e+001
3.199377e+003,9.850084e+001
3.202270e+003,9.861603e+001
3.205163e+003,9.850142e+001
3.208056e+003,9.865930e+001
3.210948e+003,9.858044e+001
3.213841e+003,9.859753e+001
3.216734e+003,9.854145e+001
3.219627e+003,9.867192e+001
3.222520e+003,9.854251e+001
3.225412e+003,9.860368e+001
3.228305e+003,9.859171e+001
3.231198e+003,9.855493e+001
3.234091e+003,9.849062e+001
3.236983e+003,9.857261e+001
3.239876e+003,9.838432e+001
3.242769e+003,9.854907e+001
3.245661e+003,9.854618e+001
3.248554e+003,9.854351e+001
3.251447e+003,9.851092e+001
3.254340e+003,9.845045e+001
3.257232e+003,9.843583e+001
3.260125e+003,9.857619e+001
3.263018e+003,9.842226e+001
3.265911e+003,9.844448e+001
3.268803e+003,9.854267e+001
3.271696e+003,9.842708e+001
3.274589e+003,9.845391e+001
3.277482e+003,9.844657e+001
3.280375e+003,9.847229e+001
3.283267e+003,9.842782e+001
3.286160e+003,9.844643e+001
3.289053e+003,9.836874e+001
3.291945e+003,9.840604e+001
3.294838e+003,9.835692e+001
3.297731e+003,9.855646e+001
3.300624e+003,9.852395e+001
3.303516e+003,9.852043e+001
3.306409e+003,9.849570e+001
3.309302e+003,9.845084e+001
3.312195e+003,9.842986e+001
3.315087e+003,9.850313e+001
3.317980e+003,9.843806e+001
3.320873e+003,9.850254e+001
3.323766e+003,9.851782e+001
3.326658e+003,9.852573e+001
3.329551e+003,9.856212e+001
3.332444e+003,9.846471e+001
3.335337e+003,9.837852e+001
3.338229e+003,9.852730e+001
3.341122e+003,9.848454e+001
3.344015e+003,9.844482e+001
3.346907e+003,9.842896e+001
3.349800e+003,9.848824e+001
3.352693e+003,9.837013e+001
3.355586e+003,9.848237e+001
3.358479e+003,9.844008e+001
3.361371e+003,9.844169e+001
3.364264e+003,9.849712e+001
3.367157e+003,9.843330e+001
3.370050e+003,9.855286e+001
3.372942e+003,9.849798e+001
3.375835e+003,9.851138e+001
3.378728e+003,9.856261e+001
3.381621e+003,9.856902e+001
3.384513e+003,9.841156e+001
3.387406e+003,9.854187e+001
3.390299e+003,9.843637e+001
3.393191e+003,9.855833e+001
3.396084e+003,9.847100e+001
3.398977e+003,9.851389e+001
3.401870e+003,9.846719e+001
3.404762e+003,9.844843e+001
3.407655e+003,9.845593e+001
3.410548e+003,9.847656e+001
3.413441e+003,9.834068e+001
3.416333e+003,9.842418e+001
3.419226e+003,9.829828e+001
3.422119e+003,9.820873e+001
3.425012e+003,9.813305e+001
3.427905e+003,9.803680e+001
3.430797e+003,9.793231e+001
3.433690e+003,9.771471e+001
3.436583e+003,9.753905e+001
3.439475e+003,9.765837e+001
3.442368e+003,9.782678e+001
3.445261e+003,9.785295e+001
3.448154e+003,9.787110e+001
3.451046e+003,9.793178e+001
3.453939e+003,9.813261e+001
3.456832e+003,9.805802e+001
3.459725e+003,9.814623e+001
3.462617e+003,9.819834e+001
3.465510e+003,9.840398e+001
3.468403e+003,9.835568e+001
3.471296e+003,9.839803e+001
3.474188e+003,9.843355e+001
3.477081e+003,9.852055e+001
3.479974e+003,9.843146e+001
3.482867e+003,9.861034e+001
3.485760e+003,9.855950e+001
3.488652e+003,9.852579e+001
3.491545e+003,9.869200e+001
3.494438e+003,9.842222e+001
3.497330e+003,9.847617e+001
3.500223e+003,9.870490e+001
3.503116e+003,9.867894e+001
3.506009e+003,9.864655e+001
3.508901e+003,9.854561e+001
3.511794e+003,9.859006e+001
3.514687e+003,9.867160e+001
3.517580e+003,9.862486e+001
3.520472e+003,9.869279e+001
3.523365e+003,9.860044e+001
3.526258e+003,9.854800e+001
3.529151e+003,9.858305e+001
3.532043e+003,9.865191e+001
3.534936e+003,9.882168e+001
3.537829e+003,9.862312e+001
3.540722e+003,9.867628e+001
3.543614e+003,9.856599e+001
3.546507e+003,9.869193e+001
3.549400e+003,9.870489e+001
3.552292e+003,9.867205e+001
3.555185e+003,9.869802e+001
3.558078e+003,9.883052e+001
3.560971e+003,9.885553e+001
3.563864e+003,9.874351e+001
3.566756e+003,9.895899e+001
3.569649e+003,9.880814e+001
3.572542e+003,9.889349e+001
3.575435e+003,9.911866e+001
3.578327e+003,9.895189e+001
3.581220e+003,9.902051e+001
3.584113e+003,9.901895e+001
3.587006e+003,9.911125e+001
3.589898e+003,9.901151e+001
3.592791e+003,9.894342e+001
3.595684e+003,9.903938e+001
3.598576e+003,9.901830e+001
3.601469e+003,9.902332e+001
3.604362e+003,9.887247e+001
3.607255e+003,9.898482e+001
3.610147e+003,9.895112e+001
3.613040e+003,9.917478e+001
3.615933e+003,9.916152e+001
3.618826e+003,9.920378e+001
3.621719e+003,9.905351e+001
3.624611e+003,9.920171e+001
3.627504e+003,9.924680e+001
3.630397e+003,9.912422e+001
3.633290e+003,9.904010e+001
3.636182e+003,9.900832e+001
3.639075e+003,9.902950e+001
3.641968e+003,9.917553e+001
3.644860e+003,9.932057e+001
3.647753e+003,9.953648e+001
3.650646e+003,9.936549e+001
3.653539e+003,9.916004e+001
3.656431e+003,9.947116e+001
3.659324e+003,9.919666e+001
3.662217e+003,9.925216e+001
3.665110e+003,9.933335e+001
3.668002e+003,9.918964e+001
3.670895e+003,9.939728e+001
3.673788e+003,9.916108e+001
3.676681e+003,9.948497e+001
3.679573e+003,9.924531e+001
3.682466e+003,9.931866e+001
3.685359e+003,9.944688e+001
3.688252e+003,9.942633e+001
3.691145e+003,9.959737e+001
3.694037e+003,9.952060e+001
3.696930e+003,9.930006e+001
3.699823e+003,9.934653e+001
3.702715e+003,9.950469e+001
3.705608e+003,9.946452e+001
3.708501e+003,9.943004e+001
3.711394e+003,9.959487e+001
3.714286e+003,9.947319e+001
3.717179e+003,9.946413e+001
3.720072e+003,9.951653e+001
3.722965e+003,9.945904e+001
3.725857e+003,9.947202e+001
3.728750e+003,9.947536e+001
3.731643e+003,9.949965e+001
3.734536e+003,9.956863e+001
3.737428e+003,9.956010e+001
3.740321e+003,9.946970e+001
3.743214e+003,9.946513e+001
3.746107e+003,9.947397e+001
3.748999e+003,9.969682e+001
3.751892e+003,9.972969e+001
3.754785e+003,9.944455e+001
3.757677e+003,9.948167e+001
3.760570e+003,9.942400e+001
3.763463e+003,9.930540e+001
3.766356e+003,9.942188e+001
3.769249e+003,9.969846e+001
3.772141e+003,9.946280e+001
3.775034e+003,9.940976e+001
3.777927e+003,9.950758e+001
3.780820e+003,9.939127e+001
3.783712e+003,9.942857e+001
3.786605e+003,9.945959e+001
3.789498e+003,9.949020e+001
3.792391e+003,9.942834e+001
3.795283e+003,9.932233e+001
3.798176e+003,9.944901e+001
3.801069e+003,9.953109e+001
3.803961e+003,9.943798e+001
3.806854e+003,9.977108e+001
3.809747e+003,9.947563e+001
3.812640e+003,9.939217e+001
3.815532e+003,9.958080e+001
3.818425e+003,9.953549e+001
3.821318e+003,9.972923e+001
3.824211e+003,9.928460e+001
3.827104e+003,9.941879e+001
3.829996e+003,9.945010e+001
3.832889e+003,9.948786e+001
3.835782e+003,9.944761e+001
3.838675e+003,9.963150e+001
3.841567e+003,9.945475e+001
3.844460e+003,9.937700e+001
3.847353e+003,9.936099e+001
3.850245e+003,9.947224e+001
3.853138e+003,9.975518e+001
3.856031e+003,9.924210e+001
3.858924e+003,9.938779e+001
3.861816e+003,9.952394e+001
3.864709e+003,9.971375e+001
3.867602e+003,9.945247e+001
3.870495e+003,9.968765e+001
3.873387e+003,9.950090e+001
3.876280e+003,9.928266e+001
3.879173e+003,9.940823e+001
3.882066e+003,9.943399e+001
3.884958e+003,9.953093e+001
3.887851e+003,9.932479e+001
3.890744e+003,9.949969e+001
3.893637e+003,9.938634e+001
3.896529e+003,9.930763e+001
3.899422e+003,9.938349e+001
3.902315e+003,9.929127e+001
3.905208e+003,9.961586e+001
3.908100e+003,9.928532e+001
3.910993e+003,9.938872e+001
3.913886e+003,9.940436e+001
3.916779e+003,9.940241e+001
3.919671e+003,9.940538e+001
3.922564e+003,9.935085e+001
3.925457e+003,9.940515e+001
3.928350e+003,9.935606e+001
3.931242e+003,9.948634e+001
3.934135e+003,9.931113e+001
3.937028e+003,9.928039e+001
3.939921e+003,9.943012e+001
3.942813e+003,9.950706e+001
3.945706e+003,9.926781e+001
3.948599e+003,9.941537e+001
3.951492e+003,9.939109e+001
3.954384e+003,9.949391e+001
3.957277e+003,9.941396e+001
3.960170e+003,9.926803e+001
3.963063e+003,9.922388e+001
3.965955e+003,9.934232e+001
3.968848e+003,9.933839e+001
3.971741e+003,9.947893e+001
3.974634e+003,9.939532e+001
3.977526e+003,9.944752e+001
3.980419e+003,9.924560e+001
3.983312e+003,9.933076e+001
3.986205e+003,9.944731e+001
3.989097e+003,9.938888e+001
3.991990e+003,9.927474e+001
3.994883e+003,9.932700e+001
3.997776e+003,9.920614e+001
4.000668e+003,0.000000e+000