File: FTIR Data (PCL)/All Data/PCL_NaOH_1_3.CSV
3.991989e+002,0.000000e+000
4.020916e+002,0.000000e+000
4.049844e+002,0.000000e+000
4.078771e+002,0.000000e+000
4.107699e+002,0.000000e+000
4.136626e+002,0.000000e+000
4.165554e+002,0.000000e+000
4.194481e+002,0.000000e+000
4.223409e+002,0.000000e+000
4.252336e+002,0.000000e+000
4.281263e+002,0.000000e+000
4.310191e+002,0.000000e+000
4.339118e+002,0.000000e+000
4.368046e+002,0.000000e+000
4.396973e+002,0.000000e+000
4.425901e+002,0.000000e+000
4.454828e+002,0.000000e+000
4.483756e+002,0.000000e+000
4.512683e+002,0.000000e+000
4.541611e+002,0.000000e+000
4.570538e+002,0.000000e+000
4.599466e+002,0.000000e+000
4.628393e+002,0.000000e+000
4.657321e+002,0.000000e+000
4.686248e+002,0.000000e+000
4.715175e+002,0.000000e+000
4.744103e+002,0.000000e+000
4.773030e+002,0.000000e+000
4.801958e+002,0.000000e+000
4.830885e+002,0.000000e+000
4.859813e+002,0.000000e+000
4.888740e+002,0.000000e+000
4.917668e+002,0.000000e+000
4.946595e+002,0.000000e+000
4.975523e+002,0.000000e+000
5.004450e+002,0.000000e+000
5.033378e+002,0.000000e+000
5.062305e+002,0.000000e+000
5.091233e+002,0.000000e+000
5.120160e+002,0.000000e+000
5.149088e+002,0.000000e+000
5.178015e+002,0.000000e+000
5.206942e+002,0.000000e+000
5.235870e+002,0.000000e+000
5.264797e+002,0.000000e+000
5.293725e+002,0.000000e+000
5.322652e+002,0.000000e+000
5.351580e+002,0.000000e+000
5.380507e+002,0.000000e+000
5.409435e+002,0.000000e+000
5.438362e+002,0.000000e+000
5.467289e+002,0.000000e+000
5.496217e+002,8.351540e+001
5.525145e+002,8.325744e+001
5.554072e+002,8.733479e+001
5.582999e+002,8.194968e+001
5.611927e+002,8.442496e+001
5.640854e+002,8.243429e+001
5.669782e+002,8.290762e+001
5.698709e+002,8.012541e+001
5.727637e+002,8.055239e+001
5.756564e+002,7.851456e+001
5.785492e+002,7.752491e+001
5.814419e+002,7.627334e+001
5.843347e+002,7.654064e+001
5.872274e+002,7.619606e+001
5.901202e+002,7.892500e+001
5.930129e+002,8.036754e+001
5.959056e+002,8.163447e+001
5.987984e+002,8.255670e+001
6.016912e+002,8.301476e+001
6.045839e+002,8.350098e+001
6.074766e+002,8.345586e+001
6.103694e+002,8.362852e+001
6.132621e+002,8.394727e+001
6.161548e+002,8.455261e+001
6.190476e+002,8.408091e+001
6.219404e+002,8.515008e+001
6.248331e+002,8.433875e+001
6.277258e+002,8.461404e+001
6.306186e+002,8.399710e+001
6.335114e+002,8.452793e+001
6.364041e+002,8.481480e+001
6.392968e+002,8.422295e+001
6.421896e+002,8.458870e+001
6.450823e+002,8.445233e+001
6.479751e+002,8.452834e+001
6.508679e+002,8.443921e+001
6.537606e+002,8.491161e+001
6.566533e+002,8.489016e+001
6.595461e+002,8.483549e+001
6.624388e+002,8.473630e+001
6.653315e+002,8.483154e+001
6.682243e+002,8.450087e+001
6.711171e+002,8.456853e+001
6.740098e+002,8.435328e+001
6.769025e+002,8.393520e+001
6.797953e+002,8.377995e+001
6.826880e+002,8.320816e+001
6.855808e+002,8.265433e+001
6.884735e+002,8.187606e+001
6.913663e+002,8.113637e+001
6.942590e+002,7.986710e+001
6.971518e+002,7.879134e+001
7.000445e+002,7.710482e+001
7.029373e+002,7.504189e+001
7.058300e+002,7.273824e+001
7.087228e+002,7.116686e+001
7.116155e+002,7.176352e+001
7.145082e+002,7.342602e+001
7.174010e+002,7.418771e+001
7.202938e+002,7.304138e+001
7.231865e+002,6.807801e+001
7.260792e+002,6.019658e+001
7.289720e+002,5.765727e+001
7.318647e+002,5.472755e+001
7.347575e+002,6.173943e+001
7.376502e+002,6.982483e+001
7.405430e+002,7.536784e+001
7.434357e+002,7.931724e+001
7.463285e+002,8.171832e+001
7.492212e+002,8.323052e+001
7.521140e+002,8.428961e+001
7.550067e+002,8.511689e+001
7.578995e+002,8.567280e+001
7.607922e+002,8.578332e+001
7.636849e+002,8.535773e+001
7.665777e+002,8.453310e+001
7.694705e+002,8.360993e+001
7.723632e+002,8.305016e+001
7.752559e+002,8.348724e+001
7.781487e+002,8.429578e+001
7.810414e+002,8.509888e+001
7.839341e+002,8.550073e+001
7.868269e+002,8.573988e+001
7.897197e+002,8.576588e+001
7.926124e+002,8.584233e+001
7.955051e+002,8.581055e+001
7.983979e+002,8.572685e+001
8.012906e+002,8.561046e+001
8.041834e+002,8.574615e+001
8.070761e+002,8.550116e+001
8.099689e+002,8.560871e+001
8.128616e+002,8.564360e+001
8.157544e+002,8.558471e+001
8.186472e+002,8.560934e+001
8.215399e+002,8.549754e+001
8.244326e+002,8.519305e+001
8.273254e+002,8.487827e+001
8.302181e+002,8.414093e+001
8.331108e+002,8.277005e+001
8.360036e+002,8.048186e+001
8.388964e+002,7.713635e+001
8.417891e+002,7.777158e+001
8.446818e+002,8.201167e+001
8.475746e+002,8.334477e+001
8.504673e+002,8.360504e+001
8.533601e+002,8.353031e+001
8.562528e+002,8.349991e+001
8.591456e+002,8.342647e+001
8.620383e+002,8.321246e+001
8.649311e+002,8.317150e+001
8.678238e+002,8.299686e+001
8.707166e+002,8.290546e+001
8.736093e+002,8.280153e+001
8.765021e+002,8.284205e+001
8.793948e+002,8.272166e+001
8.822875e+002,8.260585e+001
8.851803e+002,8.245465e+001
8.880731e+002,8.226564e+001
8.909658e+002,8.217413e+001
8.938585e+002,8.199473e+001
8.967513e+002,8.184645e+001
8.996440e+002,8.162580e+001
9.025368e+002,8.125584e+001
9.054295e+002,8.069286e+001
9.083223e+002,8.024397e+001
9.112150e+002,7.954835e+001
9.141078e+002,7.880805e+001
9.170005e+002,7.805918e+001
9.198932e+002,7.703665e+001
9.227860e+002,7.565012e+001
9.256788e+002,7.343314e+001
9.285715e+002,7.038535e+001
9.314642e+002,6.668802e+001
9.343570e+002,6.533794e+001
9.372498e+002,6.863890e+001
9.401425e+002,7.152779e+001
9.430352e+002,7.185434e+001
9.459280e+002,7.046474e+001
9.488207e+002,6.792815e+001
9.517134e+002,6.424553e+001
9.546062e+002,5.996679e+001
9.574990e+002,5.528857e+001
9.603917e+002,5.218325e+001
9.632844e+002,5.570769e+001
9.661772e+002,6.361467e+001
9.690699e+002,6.840076e+001
9.719627e+002,7.091828e+001
9.748554e+002,7.261865e+001
9.777482e+002,7.433715e+001
9.806409e+002,7.539510e+001
9.835337e+002,7.556911e+001
9.864265e+002,7.540729e+001
9.893192e+002,7.516892e+001
9.922119e+002,7.490028e+001
9.951047e+002,7.487352e+001
9.979974e+002,7.480824e+001
1.000890e+003,7.454205e+001
1.003783e+003,7.417058e+001
1.006676e+003,7.360650e+001
1.009568e+003,7.297234e+001
1.012461e+003,7.222388e+001
1.015354e+003,7.130187e+001
1.018247e+003,7.020740e+001
1.021139e+003,6.901804e+001
1.024032e+003,6.745737e+001
1.026925e+003,6.549826e+001
1.029818e+003,6.303992e+001
1.032710e+003,6.021679e+001
1.035603e+003,5.663033e+001
1.038496e+003,5.248681e+001
1.041389e+003,4.797484e+001
1.044281e+003,4.451214e+001
1.047174e+003,4.572533e+001
1.050067e+003,5.358727e+001
1.052960e+003,6.137744e+001
1.055852e+003,6.576873e+001
1.058745e+003,6.665165e+001
1.061638e+003,6.450591e+001
1.064531e+003,6.176903e+001
1.067423e+003,6.305982e+001
1.070316e+003,6.753036e+001
1.073209e+003,6.988591e+001
1.076102e+003,7.008162e+001
1.078994e+003,6.880009e+001
1.081887e+003,6.659839e+001
1.084780e+003,6.409693e+001
1.087673e+003,6.159536e+001
1.090565e+003,5.956937e+001
1.093458e+003,5.824409e+001
1.096351e+003,5.757102e+001
1.099244e+003,5.688145e+001
1.102136e+003,5.542393e+001
1.105029e+003,5.312167e+001
1.107922e+003,5.186257e+001
1.110815e+003,5.568656e+001
1.113707e+003,6.219031e+001
1.116600e+003,6.708154e+001
1.119493e+003,6.926603e+001
1.122385e+003,6.889681e+001
1.125278e+003,6.715560e+001
1.128171e+003,6.467322e+001
1.131064e+003,6.167195e+001
1.133957e+003,5.810228e+001
1.136849e+003,5.395522e+001
1.139742e+003,4.927624e+001
1.142635e+003,4.410012e+001
1.145527e+003,3.858336e+001
1.148420e+003,3.333360e+001
1.151313e+003,2.875675e+001
1.154206e+003,2.527057e+001
1.157099e+003,2.311573e+001
1.159991e+003,2.226613e+001
1.162884e+003,2.228657e+001
1.165777e+003,2.297623e+001
1.168669e+003,2.391609e+001
1.171562e+003,2.494992e+001
1.174455e+003,2.602913e+001
1.177348e+003,2.717249e+001
1.180240e+003,2.859974e+001
1.183133e+003,2.978158e+001
1.186026e+003,3.065833e+001
1.188919e+003,3.349754e+001
1.191811e+003,3.885174e+001
1.194704e+003,4.653429e+001
1.197597e+003,5.537820e+001
1.200490e+003,6.249634e+001
1.203382e+003,6.624387e+001
1.206275e+003,6.814198e+001
1.209168e+003,6.902042e+001
1.212061e+003,6.931870e+001
1.214953e+003,6.900342e+001
1.217846e+003,6.823887e+001
1.220739e+003,6.682235e+001
1.223632e+003,6.462344e+001
1.226524e+003,6.098188e+001
1.229417e+003,5.530359e+001
1.232310e+003,4.774335e+001
1.235203e+003,4.039763e+001
1.238095e+003,3.723512e+001
1.240988e+003,3.917843e+001
1.243881e+003,4.368993e+001
1.246774e+003,5.282680e+001
1.249666e+003,6.352098e+001
1.252559e+003,6.984953e+001
1.255452e+003,7.266582e+001
1.258345e+003,7.428655e+001
1.261237e+003,7.552053e+001
1.264130e+003,7.634361e+001
1.267023e+003,7.675314e+001
1.269916e+003,7.669167e+001
1.272808e+003,7.616506e+001
1.275701e+003,7.539148e+001
1.278594e+003,7.449198e+001
1.281487e+003,7.328625e+001
1.284379e+003,7.140707e+001
1.287272e+003,6.779801e+001
1.290165e+003,6.028986e+001
1.293057e+003,5.441781e+001
1.295950e+003,5.896747e+001
1.298843e+003,6.688087e+001
1.301736e+003,7.279425e+001
1.304629e+003,7.573009e+001
1.307521e+003,7.828902e+001
1.310414e+003,8.038116e+001
1.313307e+003,8.172257e+001
1.316200e+003,8.253802e+001
1.319092e+003,8.289158e+001
1.321985e+003,8.288471e+001
1.324878e+003,8.299482e+001
1.327771e+003,8.366994e+001
1.330663e+003,8.455044e+001
1.333556e+003,8.507856e+001
1.336449e+003,8.503324e+001
1.339342e+003,8.436218e+001
1.342234e+003,8.300352e+001
1.345127e+003,8.096842e+001
1.348020e+003,7.818413e+001
1.350912e+003,7.471599e+001
1.353805e+003,7.154971e+001
1.356698e+003,6.892612e+001
1.359591e+003,6.497308e+001
1.362484e+003,6.053442e+001
1.365376e+003,5.847097e+001
1.368269e+003,6.093113e+001
1.371162e+003,6.552207e+001
1.374054e+003,6.799776e+001
1.376947e+003,7.198105e+001
1.379840e+003,7.806620e+001
1.382733e+003,8.182032e+001
1.385625e+003,8.264087e+001
1.388518e+003,8.121264e+001
1.391411e+003,7.879047e+001
1.394304e+003,7.573524e+001
1.397196e+003,7.405631e+001
1.400089e+003,7.703642e+001
1.402982e+003,8.125732e+001
1.405875e+003,8.377469e+001
1.408767e+003,8.321259e+001
1.411660e+003,7.947269e+001
1.414553e+003,7.512273e+001
1.417446e+003,7.357826e+001
1.420338e+003,7.377649e+001
1.423231e+003,7.928774e+001
1.426124e+003,8.414877e+001
1.429017e+003,8.604755e+001
1.431909e+003,8.618095e+001
1.434802e+003,8.516348e+001
1.437695e+003,8.498766e+001
1.440588e+003,8.581519e+001
1.443480e+003,8.633822e+001
1.446373e+003,8.600743e+001
1.449266e+003,8.535939e+001
1.452159e+003,8.431451e+001
1.455051e+003,8.288696e+001
1.457944e+003,8.011259e+001
1.460837e+003,7.943232e+001
1.463730e+003,7.799416e+001
1.466622e+003,7.813062e+001
1.469515e+003,7.451106e+001
1.472408e+003,7.753339e+001
1.475301e+003,8.169449e+001
1.478193e+003,8.265717e+001
1.481086e+003,8.766114e+001
1.483979e+003,9.126571e+001
1.486872e+003,9.291644e+001
1.489764e+003,9.382756e+001
1.492657e+003,9.431334e+001
1.495550e+003,9.466333e+001
1.498443e+003,9.489581e+001
1.501335e+003,9.493619e+001
1.504228e+003,9.511325e+001
1.507121e+003,9.532541e+001
1.510014e+003,9.531920e+001
1.512906e+003,9.531281e+001
1.515799e+003,9.540407e+001
1.518692e+003,9.537589e+001
1.521584e+003,9.544989e+001
1.524477e+003,9.545184e+001
1.527370e+003,9.539688e+001
1.530263e+003,9.541723e+001
1.533156e+003,9.530988e+001
1.536048e+003,9.536705e+001
1.538941e+003,9.535715e+001
1.541834e+003,9.530623e+001
1.544726e+003,9.531844e+001
1.547619e+003,9.529013e+001
1.550512e+003,9.537445e+001
1.553405e+003,9.528392e+001
1.556297e+003,9.528780e+001
1.559190e+003,9.554950e+001
1.562083e+003,9.528022e+001
1.564976e+003,9.522338e+001
1.567869e+003,9.522656e+001
1.570761e+003,9.514272e+001
1.573654e+003,9.514539e+001
1.576547e+003,9.508370e+001
1.579439e+003,9.501015e+001
1.582332e+003,9.494712e+001
1.585225e+003,9.494157e+001
1.588118e+003,9.492129e+001
1.591010e+003,9.477757e+001
1.593903e+003,9.471177e+001
1.596796e+003,9.457101e+001
1.599689e+003,9.451091e+001
1.602581e+003,9.434489e+001
1.605474e+003,9.420472e+001
1.608367e+003,9.405599e+001
1.611260e+003,9.379308e+001
1.614152e+003,9.368314e+001
1.617045e+003,9.363975e+001
1.619938e+003,9.329443e+001
1.622831e+003,9.314974e+001
1.625723e+003,9.285831e+001
1.628616e+003,9.257457e+001
1.631509e+003,9.237905e+001
1.634402e+003,9.220824e+001
1.637294e+003,9.206411e+001
1.640187e+003,9.182281e+001
1.643080e+003,9.164034e+001
1.645973e+003,9.135657e+001
1.648865e+003,9.125249e+001
1.651758e+003,9.078479e+001
1.654651e+003,9.043719e+001
1.657544e+003,8.994369e+001
1.660436e+003,8.940033e+001
1.663329e+003,8.875727e+001
1.666222e+003,8.785498e+001
1.669115e+003,8.687054e+001
1.672007e+003,8.553638e+001
1.674900e+003,8.402113e+001
1.677793e+003,8.193383e+001
1.680686e+003,7.938731e+001
1.683578e+003,7.707355e+001
1.686471e+003,7.465313e+001
1.689364e+003,7.277620e+001
1.692257e+003,7.108548e+001
1.695149e+003,6.916520e+001
1.698042e+003,6.636909e+001
1.700935e+003,6.265663e+001
1.703828e+003,5.937021e+001
1.706720e+003,5.381382e+001
1.709613e+003,4.695976e+001
1.712506e+003,3.760912e+001
1.715399e+003,2.576692e+001
1.718291e+003,1.509600e+001
1.721184e+003,1.282857e+001
1.724077e+003,1.852313e+001
1.726969e+003,2.840477e+001
1.729862e+003,3.588273e+001
1.732755e+003,4.088964e+001
1.735648e+003,4.878591e+001
1.738541e+003,5.546850e+001
1.741433e+003,6.482146e+001
1.744326e+003,7.375001e+001
1.747219e+003,8.083892e+001
1.750111e+003,8.573024e+001
1.753004e+003,8.881443e+001
1.755897e+003,9.039214e+001
1.758790e+003,9.141637e+001
1.761682e+003,9.213822e+001
1.764575e+003,9.242826e+001
1.767468e+003,9.275929e+001
1.770361e+003,9.307093e+001
1.773253e+003,9.352321e+001
1.776146e+003,9.382219e+001
1.779039e+003,9.407813e+001
1.781932e+003,9.434785e+001
1.784824e+003,9.468591e+001
1.787717e+003,9.484862e+001
1.790610e+003,9.508696e+001
1.793503e+003,9.528180e+001
1.796395e+003,9.538903e+001
1.799288e+003,9.560815e+001
1.802181e+003,9.576998e+001
1.805074e+003,9.584660e+001
1.807966e+003,9.594902e+001
1.810859e+003,9.612012e+001
1.813752e+003,9.620351e+001
1.816645e+003,9.638895e+001
1.819537e+003,9.632084e+001
1.822430e+003,9.628486e+001
1.825323e+003,9.636709e+001
1.828216e+003,9.648087e+001
1.831108e+003,9.642970e+001
1.834001e+003,9.649294e+001
1.836894e+003,9.638630e+001
1.839787e+003,9.641782e+001
1.842679e+003,9.651122e+001
1.845572e+003,9.646405e+001
1.848465e+003,9.648091e+001
1.851358e+003,9.658856e+001
1.854250e+003,9.668058e+001
1.857143e+003,9.672845e+001
1.860036e+003,9.674638e+001
1.862929e+003,9.678809e+001
1.865821e+003,9.670011e+001
1.868714e+003,9.660775e+001
1.871607e+003,9.666424e+001
1.874500e+003,9.671806e+001
1.877392e+003,9.672068e+001
1.880285e+003,9.668631e+001
1.883178e+003,9.664178e+001
1.886071e+003,9.670409e+001
1.888963e+003,9.673344e+001
1.891856e+003,9.675584e+001
1.894749e+003,9.675192e+001
1.897642e+003,9.671284e+001
1.900534e+003,9.674284e+001
1.903427e+003,9.663053e+001
1.906320e+003,9.663632e+001
1.909213e+003,9.655522e+001
1.912105e+003,9.652055e+001
1.914998e+003,9.658822e+001
1.917891e+003,9.646909e+001
1.920784e+003,9.648432e+001
1.923676e+003,9.661226e+001
1.926569e+003,9.663593e+001
1.929462e+003,9.669044e+001
1.932354e+003,9.661562e+001
1.935247e+003,9.677398e+001
1.938140e+003,9.673564e+001
1.941033e+003,9.676455e+001
1.943926e+003,9.662370e+001
1.946818e+003,9.660875e+001
1.949711e+003,9.683410e+001
1.952604e+003,9.664456e+001
1.955496e+003,9.654447e+001
1.958389e+003,9.684872e+001
1.961282e+003,9.642324e+001
1.964175e+003,9.662529e+001
1.967068e+003,9.660955e+001
1.969960e+003,9.662001e+001
1.972853e+003,9.671232e+001
1.975746e+003,9.694941e+001
1.978638e+003,9.608461e+001
1.981531e+003,9.629414e+001
1.984424e+003,9.664059e+001
1.987317e+003,9.650721e+001
1.990209e+003,9.649078e+001
1.993102e+003,9.666708e+001
1.995995e+003,9.653333e+001
1.998888e+003,9.669202e+001
2.001780e+003,9.636303e+001
2.004673e+003,9.692364e+001
2.007566e+003,9.639267e+001
2.010459e+003,9.637250e+001
2.013351e+003,9.644302e+001
2.016244e+003,9.678174e+001
2.019137e+003,9.676458e+001
2.022030e+003,9.670433e+001
2.024922e+003,9.657333e+001
2.027815e+003,9.636442e+001
2.030708e+003,9.616841e+001
2.033601e+003,9.646532e+001
2.036493e+003,9.636199e+001
2.039386e+003,9.632684e+001
2.042279e+003,9.640440e+001
2.045172e+003,9.638659e+001
2.048064e+003,9.625929e+001
2.050957e+003,9.623406e+001
2.053850e+003,9.656866e+001
2.056743e+003,9.647580e+001
2.059635e+003,9.651958e+001
2.062528e+003,9.647452e+001
2.065421e+003,9.628875e+001
2.068314e+003,9.639101e+001
2.071206e+003,9.626123e+001
2.074099e+003,9.633553e+001
2.076992e+003,9.630238e+001
2.079885e+003,9.622714e+001
2.082777e+003,9.628684e+001
2.085670e+003,9.617280e+001
2.088563e+003,9.636314e+001
2.091456e+003,9.636172e+001
2.094348e+003,9.641894e+001
2.097241e+003,9.597833e+001
2.100134e+003,9.614191e+001
2.103027e+003,9.621370e+001
2.105919e+003,9.624150e+001
2.108812e+003,9.622807e+001
2.111705e+003,9.623635e+001
2.114598e+003,9.630725e+001
2.117490e+003,9.640069e+001
2.120383e+003,9.658338e+001
2.123276e+003,9.663689e+001
2.126168e+003,9.674400e+001
2.129061e+003,9.690123e+001
2.131954e+003,9.688464e+001
2.134847e+003,9.690171e+001
2.137740e+003,9.680526e+001
2.140632e+003,9.680097e+001
2.143525e+003,9.684047e+001
2.146418e+003,9.698439e+001
2.149311e+003,9.687406e+001
2.152203e+003,9.682035e+001
2.155096e+003,9.690724e+001
2.157989e+003,9.730415e+001
2.160882e+003,9.599356e+001
2.163774e+003,9.623989e+001
2.166667e+003,9.658019e+001
2.169560e+003,9.654654e+001
2.172452e+003,9.654861e+001
2.175345e+003,9.668785e+001
2.178238e+003,9.693739e+001
2.181131e+003,9.654417e+001
2.184023e+003,9.670898e+001
2.186916e+003,9.634496e+001
2.189809e+003,9.642905e+001
2.192702e+003,9.662994e+001
2.195594e+003,9.665475e+001
2.198487e+003,9.659209e+001
2.201380e+003,9.661784e+001
2.204273e+003,9.652467e+001
2.207166e+003,9.665505e+001
2.210058e+003,9.660303e+001
2.212951e+003,9.666820e+001
2.215844e+003,9.662534e+001
2.218736e+003,9.658481e+001
2.221629e+003,9.654548e+001
2.224522e+003,9.660439e+001
2.227415e+003,9.670002e+001
2.230307e+003,9.657700e+001
2.233200e+003,9.665962e+001
2.236093e+003,9.649441e+001
2.238986e+003,9.647385e+001
2.241878e+003,9.653715e+001
2.244771e+003,9.657672e+001
2.247664e+003,9.660744e+001
2.250557e+003,9.658209e+001
2.253449e+003,9.655215e+001
2.256342e+003,9.658248e+001
2.259235e+003,9.664019e+001
2.262128e+003,9.642401e+001
2.265020e+003,9.662843e+001
2.267913e+003,9.648492e+001
2.270806e+003,9.658337e+001
2.273699e+003,9.650750e+001
2.276591e+003,9.641019e+001
2.279484e+003,9.644674e+001
2.282377e+003,9.636123e+001
2.285270e+003,9.634523e+001
2.288162e+003,9.636622e+001
2.291055e+003,9.637727e+001
2.293948e+003,9.652266e+001
2.296841e+003,9.637469e+001
2.299733e+003,9.646957e+001
2.302626e+003,9.651360e+001
2.305519e+003,9.640441e+001
2.308412e+003,9.643497e+001
2.311304e+003,9.641859e+001
2.314197e+003,9.638752e+001
2.317090e+003,9.624310e+001
2.319983e+003,9.624911e+001
2.322875e+003,9.617366e+001
2.325768e+003,9.641635e+001
2.328661e+003,9.659366e+001
2.331553e+003,9.629036e+001
2.334446e+003,9.640943e+001
2.337339e+003,9.632023e+001
2.340232e+003,9.641154e+001
2.343125e+003,9.641280e+001
2.346017e+003,9.647395e+001
2.348910e+003,9.633108e+001
2.351803e+003,9.651828e+001
2.354696e+003,9.646674e+001
2.357588e+003,9.681715e+001
2.360481e+003,9.671157e+001
2.363374e+003,9.688123e+001
2.366267e+003,9.684920e+001
2.369159e+003,9.676213e+001
2.372052e+003,9.681398e+001
2.374945e+003,9.670638e+001
2.377837e+003,9.677340e+001
2.380730e+003,9.677059e+001
2.383623e+003,9.679251e+001
2.386516e+003,9.680222e+001
2.389408e+003,9.684207e+001
2.392301e+003,9.679616e+001
2.395194e+003,9.675943e+001
2.398087e+003,9.674874e+001
2.400979e+003,9.670721e+001
2.403872e+003,9.672676e+001
2.406765e+003,9.660596e+001
2.409658e+003,9.650843e+001
2.412551e+003,9.648257e+001
2.415443e+003,9.661810e+001
2.418336e+003,9.656956e+001
2.421229e+003,9.653137e+001
2.424121e+003,9.661206e+001
2.427014e+003,9.665289e+001
2.429907e+003,9.678685e+001
2.432800e+003,9.663924e+001
2.435692e+003,9.671181e+001
2.438585e+003,9.670663e+001
2.441478e+003,9.673492e+001
2.444371e+003,9.676989e+001
2.447263e+003,9.672003e+001
2.450156e+003,9.670926e+001
2.453049e+003,9.677850e+001
2.455942e+003,9.671038e+001
2.458834e+003,9.672913e+001
2.461727e+003,9.678793e+001
2.464620e+003,9.673290e+001
2.467513e+003,9.664978e+001
2.470405e+003,9.673268e+001
2.473298e+003,9.671934e+001
2.476191e+003,9.664417e+001
2.479084e+003,9.664017e+001
2.481976e+003,9.672093e+001
2.484869e+003,9.663018e+001
2.487762e+003,9.666151e+001
2.490655e+003,9.666690e+001
2.493547e+003,9.670116e+001
2.496440e+003,9.671011e+001
2.499333e+003,9.673168e+001
2.502226e+003,9.667894e+001
2.505118e+003,9.679223e+001
2.508011e+003,9.676333e+001
2.510904e+003,9.677822e+001
2.513797e+003,9.667617e+001
2.516689e+003,9.666898e+001
2.519582e+003,9.671469e+001
2.522475e+003,9.659295e+001
2.525368e+003,9.651170e+001
2.528260e+003,9.658684e+001
2.531153e+003,9.651594e+001
2.534046e+003,9.656752e+001
2.536938e+003,9.653605e+001
2.539831e+003,9.653312e+001
2.542724e+003,9.654583e+001
2.545617e+003,9.657449e+001
2.548510e+003,9.662328e+001
2.551402e+003,9.657172e+001
2.554295e+003,9.660432e+001
2.557188e+003,9.666189e+001
2.560081e+003,9.653904e+001
2.562973e+003,9.660889e+001
2.565866e+003,9.652697e+001
2.568759e+003,9.657146e+001
2.571652e+003,9.654507e+001
2.574544e+003,9.660518e+001
2.577437e+003,9.648846e+001
2.580330e+003,9.649851e+001
2.583222e+003,9.656284e+001
2.586115e+003,9.660385e+001
2.589008e+003,9.655001e+001
2.591901e+003,9.652870e+001
2.594793e+003,9.652682e+001
2.597686e+003,9.645223e+001
2.600579e+003,9.653490e+001
2.603472e+003,9.649725e+001
2.606365e+003,9.648051e+001
2.609257e+003,9.645020e+001
2.612150e+003,9.650673e+001
2.615043e+003,9.647131e+001
2.617936e+003,9.640502e+001
2.620828e+003,9.642974e+001
2.623721e+003,9.651199e+001
2.626614e+003,9.634932e+001
2.629506e+003,9.637684e+001
2.632399e+003,9.638088e+001
2.635292e+003,9.633408e+001
2.638185e+003,9.630469e+001
2.641077e+003,9.628780e+001
2.643970e+003,9.630602e+001
2.646863e+003,9.623714e+001
2.649756e+003,9.628268e+001
2.652648e+003,9.630791e+001
2.655541e+003,9.632645e+001
2.658434e+003,9.628011e+001
2.661327e+003,9.631134e+001
2.664219e+003,9.630780e+001
2.667112e+003,9.636240e+001
2.670005e+003,9.637566e+001
2.672898e+003,9.633873e+001
2.675790e+003,9.626385e+001
2.678683e+003,9.629595e+001
2.681576e+003,9.631940e+001
2.684469e+003,9.628610e+001
2.687361e+003,9.630016e+001
2.690254e+003,9.624374e+001
2.693147e+003,9.628334e+001
2.696040e+003,9.629913e+001
2.698932e+003,9.627505e+001
2.701825e+003,9.624924e+001
2.704718e+003,9.631509e+001
2.707611e+003,9.616663e+001
2.710503e+003,9.624502e+001
2.713396e+003,9.620712e+001
2.716289e+003,9.619730e+001
2.719182e+003,9.621019e+001
2.722074e+003,9.622151e+001
2.724967e+003,9.622117e+001
2.727860e+003,9.619938e+001
2.730753e+003,9.614166e+001
2.733645e+003,9.619942e+001
2.736538e+003,9.609675e+001
2.739431e+003,9.616596e+001
2.742323e+003,9.612812e+001
2.745216e+003,9.609097e+001
2.748109e+003,9.596246e+001
2.751002e+003,9.607499e+001
2.753895e+003,9.602676e+001
2.756787e+003,9.596772e+001
2.759680e+003,9.597815e+001
2.762573e+003,9.597556e+001
2.765466e+003,9.595766e+001
2.768358e+003,9.587619e+001
2.771251e+003,9.588744e+001
2.774144e+003,9.579675e+001
2.777037e+003,9.582540e+001
2.779929e+003,9.576809e+001
2.782822e+003,9.578471e+001
2.785715e+003,9.573487e+001
2.788607e+003,9.570554e+001
2.791500e+003,9.562677e+001
2.794393e+003,9.556096e+001
2.797286e+003,9.559843e+001
2.800178e+003,9.541934e+001
2.803071e+003,9.533617e+001
2.805964e+003,9.528181e+001
2.808857e+003,9.511800e+001
2.811750e+003,9.493192e+001
2.814642e+003,9.472581e+001
2.817535e+003,9.452090e+001
2.820428e+003,9.436993e+001
2.823321e+003,9.411049e+001
2.826213e+003,9.387908e+001
2.829106e+003,9.365521e+001
2.831999e+003,9.339795e+001
2.834891e+003,9.302000e+001
2.837784e+003,9.243724e+001
2.840677e+003,9.174874e+001
2.843570e+003,9.071341e+001
2.846462e+003,8.940818e+001
2.849355e+003,8.762663e+001
2.852248e+003,8.564993e+001
2.855141e+003,8.345750e+001
2.858033e+003,8.121367e+001
2.860926e+003,7.916182e+001
2.863819e+003,7.772340e+001
2.866712e+003,7.804874e+001
2.869604e+003,7.951008e+001
2.872497e+003,8.177100e+001
2.875390e+003,8.393349e+001
2.878283e+003,8.545033e+001
2.881175e+003,8.626242e+001
2.884068e+003,8.640860e+001
2.886961e+003,8.576535e+001
2.889854e+003,8.432156e+001
2.892746e+003,8.262269e+001
2.895639e+003,8.211283e+001
2.898532e+003,8.266315e+001
2.901425e+003,8.270056e+001
2.904317e+003,8.200086e+001
2.907210e+003,8.103589e+001
2.910103e+003,8.009935e+001
2.912996e+003,7.925417e+001
2.915888e+003,7.827959e+001
2.918781e+003,7.692850e+001
2.921674e+003,7.538366e+001
2.924567e+003,7.424017e+001
2.927459e+003,7.342092e+001
2.930352e+003,7.258919e+001
2.933245e+003,7.124188e+001
2.936137e+003,7.041427e+001
2.939030e+003,6.980943e+001
2.941923e+003,6.953165e+001
2.944816e+003,6.939345e+001
2.947708e+003,7.022977e+001
2.950601e+003,7.191154e+001
2.953494e+003,7.327856e+001
2.956387e+003,7.458595e+001
2.959280e+003,7.675417e+001
2.962172e+003,7.940768e+001
2.965065e+003,8.164391e+001
2.967958e+003,8.391463e+001
2.970851e+003,8.611353e+001
2.973743e+003,8.818037e+001
2.976636e+003,8.980119e+001
2.979529e+003,9.102733e+001
2.982422e+003,9.213894e+001
2.985314e+003,9.296968e+001
2.988207e+003,9.371491e+001
2.991100e+003,9.424493e+001
2.993992e+003,9.473799e+001
2.996885e+003,9.507449e+001
2.999778e+003,9.532916e+001
3.002671e+003,9.559172e+001
3.005563e+003,9.573267e+001
3.008456e+003,9.591006e+001
3.011349e+003,9.605216e+001
3.014242e+003,9.611687e+001
3.017135e+003,9.615134e+001
3.020027e+003,9.618457e+001
3.022920e+003,9.632327e+001
3.025813e+003,9.628790e+001
3.028706e+003,9.641381e+001
3.031598e+003,9.637444e+001
3.034491e+003,9.646648e+001
3.037384e+003,9.656696e+001
3.040276e+003,9.655960e+001
3.043169e+003,9.646560e+001
3.046062e+003,9.658675e+001
3.048955e+003,9.661270e+001
3.051847e+003,9.655515e+001
3.054740e+003,9.654486e+001
3.057633e+003,9.654671e+001
3.060526e+003,9.657634e+001
3.063418e+003,9.652139e+001
3.066311e+003,9.666212e+001
3.069204e+003,9.666568e+001
3.072097e+003,9.660914e+001
3.074990e+003,9.662701e+001
3.077882e+003,9.660635e+001
3.080775e+003,9.672736e+001
3.083668e+003,9.661684e+001
3.086560e+003,9.663845e+001
3.089453e+003,9.670538e+001
3.092346e+003,9.674240e+001
3.095239e+003,9.664787e+001
3.098131e+003,9.675468e+001
3.101024e+003,9.672215e+001
3.103917e+003,9.674535e+001
3.106810e+003,9.666247e+001
3.109702e+003,9.669868e+001
3.112595e+003,9.674819e+001
3.115488e+003,9.677689e+001
3.118381e+003,9.678395e+001
3.121273e+003,9.668264e+001
3.124166e+003,9.670003e+001
3.127059e+003,9.674200e+001
3.129952e+003,9.680916e+001
3.132844e+003,9.674641e+001
3.135737e+003,9.670028e+001
3.138630e+003,9.675028e+001
3.141522e+003,9.674347e+001
3.144415e+003,9.678486e+001
3.147308e+003,9.679935e+001
3.150201e+003,9.677333e+001
3.153094e+003,9.673964e+001
3.155986e+003,9.679810e+001
3.158879e+003,9.681767e+001
3.161772e+003,9.681989e+001
3.164665e+003,9.676627e+001
3.167557e+003,9.684904e+001
3.170450e+003,9.679416e+001
3.173343e+003,9.684547e+001
3.176236e+003,9.670747e+001
3.179128e+003,9.677464e+001
3.182021e+003,9.684440e+001
3.184914e+003,9.681853e+001
3.187806e+003,9.682131e+001
3.190699e+003,9.683374e+001
3.193592e+003,9.674881e+001
3.196485e+003,9.682654e+001
3.199377e+003,9.673624e+001
3.202270e+003,9.683855e+001
3.205163e+003,9.680582e+001
3.208056e+003,9.678705e+001
3.210948e+003,9.681467e+001
3.213841e+003,9.681057e+001
3.216734e+003,9.678014e+001
3.219627e+003,9.683882e+001
3.222520e+003,9.674639e+001
3.225412e+003,9.685573e+001
3.228305e+003,9.678207e+001
3.231198e+003,9.684591e+001
3.234091e+003,9.681044e+001
3.236983e+003,9.686459e+001
3.239876e+003,9.672906e+001
3.242769e+003,9.688172e+001
3.245661e+003,9.681420e+001
3.248554e+003,9.689143e+001
3.251447e+003,9.676170e+001
3.254340e+003,9.671231e+001
3.257232e+003,9.673759e+001
3.260125e+003,9.684330e+001
3.263018e+003,9.679259e+001
3.265911e+003,9.676148e+001
3.268803e+003,9.677199e+001
3.271696e+003,9.677478e+001
3.274589e+003,9.672873e+001
3.277482e+003,9.666522e+001
3.280375e+003,9.684958e+001
3.283267e+003,9.686261e+001
3.286160e+003,9.675838e+001
3.289053e+003,9.673834e+001
3.291945e+003,9.674595e+001
3.294838e+003,9.671983e+001
3.297731e+003,9.682771e+001
3.300624e+003,9.686040e+001
3.303516e+003,9.679982e+001
3.306409e+003,9.687495e+001
3.309302e+003,9.679973e+001
3.312195e+003,9.679381e+001
3.315087e+003,9.678451e+001
3.317980e+003,9.675033e+001
3.320873e+003,9.685725e+001
3.323766e+003,9.678064e+001
3.326658e+003,9.685545e+001
3.329551e+003,9.683417e+001
3.332444e+003,9.678973e+001
3.335337e+003,9.689693e+001
3.338229e+003,9.686441e+001
3.341122e+003,9.673273e+001
3.344015e+003,9.673382e+001
3.346907e+003,9.687446e+001
3.349800e+003,9.680715e+001
3.352693e+003,9.681513e+001
3.355586e+003,9.681728e+001
3.358479e+003,9.686234e+001
3.361371e+003,9.682966e+001
3.364264e+003,9.678087e+001
3.367157e+003,9.699023e+001
3.370050e+003,9.682006e+001
3.372942e+003,9.684853e+001
3.375835e+003,9.683897e+001
3.378728e+003,9.686260e+001
3.381621e+003,9.692730e+001
3.384513e+003,9.686368e+001
3.387406e+003,9.689719e+001
3.390299e+003,9.690279e+001
3.393191e+003,9.685594e+001
3.396084e+003,9.681162e+001
3.398977e+003,9.688324e+001
3.401870e+003,9.680701e+001
3.404762e+003,9.682668e+001
3.407655e+003,9.678726e+001
3.410548e+003,9.676341e+001
3.413441e+003,9.665787e+001
3.416333e+003,9.667755e+001
3.419226e+003,9.662305e+001
3.422119e+003,9.658268e+001
3.425012e+003,9.643003e+001
3.427905e+003,9.643934e+001
3.430797e+003,9.630455e+001
3.433690e+003,9.605567e+001
3.436583e+003,9.591215e+001
3.439475e+003,9.601279e+001
3.442368e+003,9.620248e+001
3.445261e+003,9.621983e+001
3.448154e+003,9.629353e+001
3.451046e+003,9.634380e+001
3.453939e+003,9.643982e+001
3.456832e+003,9.641211e+001
3.459725e+003,9.640205e+001
3.462617e+003,9.664617e+001
3.465510e+003,9.651839e+001
3.468403e+003,9.671150e+001
3.471296e+003,9.672520e+001
3.474188e+003,9.674063e+001
3.477081e+003,9.684935e+001
3.479974e+003,9.672136e+001
3.482867e+003,9.689818e+001
3.485760e+003,9.694395e+001
3.488652e+003,9.682804e+001
3.491545e+003,9.687038e+001
3.494438e+003,9.679765e+001
3.497330e+003,9.689709e+001
3.500223e+003,9.684218e+001
3.503116e+003,9.681189e+001
3.506009e+003,9.684351e+001
3.508901e+003,9.682215e+001
3.511794e+003,9.688540e+001
3.514687e+003,9.687274e+001
3.517580e+003,9.683112e+001
3.520472e+003,9.697639e+001
3.523365e+003,9.694314e+001
3.526258e+003,9.687852e+001
3.529151e+003,9.674520e+001
3.532043e+003,9.683852e+001
3.534936e+003,9.699601e+001
3.537829e+003,9.686815e+001
3.540722e+003,9.676031e+001
3.543614e+003,9.664994e+001
3.546507e+003,9.689879e+001
3.549400e+003,9.683605e+001
3.552292e+003,9.682319e+001
3.555185e+003,9.683102e+001
3.558078e+003,9.687727e+001
3.560971e+003,9.692542e+001
3.563864e+003,9.684179e+001
3.566756e+003,9.703575e+001
3.569649e+003,9.700586e+001
3.572542e+003,9.697039e+001
3.575435e+003,9.719994e+001
3.578327e+003,9.705462e+001
3.581220e+003,9.710394e+001
3.584113e+003,9.695540e+001
3.587006e+003,9.725504e+001
3.589898e+003,9.705898e+001
3.592791e+003,9.703477e+001
3.595684e+003,9.725346e+001
3.598576e+003,9.702325e+001
3.601469e+003,9.705485e+001
3.604362e+003,9.696269e+001
3.607255e+003,9.699271e+001
3.610147e+003,9.710256e+001
3.613040e+003,9.688380e+001
3.615933e+003,9.701151e+001
3.618826e+003,9.703416e+001
3.621719e+003,9.696922e+001
3.624611e+003,9.707313e+001
3.627504e+003,9.732302e+001
3.630397e+003,9.704891e+001
3.633290e+003,9.700095e+001
3.636182e+003,9.696613e+001
3.639075e+003,9.706224e+001
3.641968e+003,9.704004e+001
3.644860e+003,9.719720e+001
3.647753e+003,9.714368e+001
3.650646e+003,9.734081e+001
3.653539e+003,9.708121e+001
3.656431e+003,9.716119e+001
3.659324e+003,9.710704e+001
3.662217e+003,9.705583e+001
3.665110e+003,9.712858e+001
3.668002e+003,9.693415e+001
3.670895e+003,9.717256e+001
3.673788e+003,9.709698e+001
3.676681e+003,9.708221e+001
3.679573e+003,9.710632e+001
3.682466e+003,9.701684e+001
3.685359e+003,9.719814e+001
3.688252e+003,9.718534e+001
3.691145e+003,9.732726e+001
3.694037e+003,9.715597e+001
3.696930e+003,9.717809e+001
3.699823e+003,9.710896e+001
3.702715e+003,9.708389e+001
3.705608e+003,9.719042e+001
3.708501e+003,9.716431e+001
3.711394e+003,9.724580e+001
3.714286e+003,9.724476e+001
3.717179e+003,9.724371e+001
3.720072e+003,9.726389e+001
3.722965e+003,9.707000e+001
3.725857e+003,9.718539e+001
3.728750e+003,9.721274e+001
3.731643e+003,9.742617e+001
3.734536e+003,9.739801e+001
3.737428e+003,9.717479e+001
3.740321e+003,9.719032e+001
3.743214e+003,9.719218e+001
3.746107e+003,9.720853e+001
3.748999e+003,9.731029e+001
3.751892e+003,9.750715e+001
3.754785e+003,9.723357e+001
3.757677e+003,9.729549e+001
3.760570e+003,9.718693e+001
3.763463e+003,9.709750e+001
3.766356e+003,9.729966e+001
3.769249e+003,9.731767e+001
3.772141e+003,9.715562e+001
3.775034e+003,9.717945e+001
3.777927e+003,9.723820e+001
3.780820e+003,9.718802e+001
3.783712e+003,9.734138e+001
3.786605e+003,9.717152e+001
3.789498e+003,9.722278e+001
3.792391e+003,9.716965e+001
3.795283e+003,9.717593e+001
3.798176e+003,9.727113e+001
3.801069e+003,9.710201e+001
3.803961e+003,9.719265e+001
3.806854e+003,9.763268e+001
3.809747e+003,9.725688e+001
3.812640e+003,9.720001e+001
3.815532e+003,9.723802e+001
3.818425e+003,9.729814e+001
3.821318e+003,9.735966e+001
3.824211e+003,9.715334e+001
3.827104e+003,9.737931e+001
3.829996e+003,9.723376e+001
3.832889e+003,9.722479e+001
3.835782e+003,9.711420e+001
3.838675e+003,9.731785e+001
3.841567e+003,9.717351e+001
3.844460e+003,9.718262e+001
3.847353e+003,9.723136e+001
3.850245e+003,9.733211e+001
3.853138e+003,9.714777e+001
3.856031e+003,9.714714e+001
3.858924e+003,9.713634e+001
3.861816e+003,9.718842e+001
3.864709e+003,9.733115e+001
3.867602e+003,9.734021e+001
3.870495e+003,9.732308e+001
3.873387e+003,9.715432e+001
3.876280e+003,9.717288e+001
3.879173e+003,9.714468e+001
3.882066e+003,9.723776e+001
3.884958e+003,9.715981e+001
3.887851e+003,9.714597e+001
3.890744e+003,9.735153e+001
3.893637e+003,9.720850e+001
3.896529e+003,9.702605e+001
3.899422e+003,9.735783e+001
3.902315e+003,9.711607e+001
3.905208e+003,9.740739e+001
3.908100e+003,9.715025e+001
3.910993e+003,9.714144e+001
3.913886e+003,9.721740e+001
3.916779e+003,9.716791e+001
3.919671e+003,9.731328e+001
3.922564e+003,9.723027e+001
3.925457e+003,9.724152e+001
3.928350e+003,9.717807e+001
3.931242e+003,9.719870e+001
3.934135e+003,9.717598e+001
3.937028e+003,9.713180e+001
3.939921e+003,9.725804e+001
3.942813e+003,9.722640e+001
3.945706e+003,9.715623e+001
3.948599e+003,9.721365e+001
3.951492e+003,9.723561e+001
3.954384e+003,9.726264e+001
3.957277e+003,9.712125e+001
3.960170e+003,9.712526e+001
3.963063e+003,9.717245e+001
3.965955e+003,9.710147e+001
3.968848e+003,9.719095e+001
3.971741e+003,9.711481e+001
3.974634e+003,9.707346e+001
3.977526e+003,9.713364e+001
3.980419e+003,9.706651e+001
3.983312e+003,9.721201e+001
3.986205e+003,9.719978e+001
3.989097e+003,9.722622e+001
3.991990e+003,9.719077e+001
3.994883e+003,9.710964e+001
3.997776e+003,9.701768e+001
4.000668e+003,0.000000e+000