File: FTIR Data (PCL)/All Data/PCL_NaOH_3_2.CSV
3.991989e+002,0.000000e+000
4.020916e+002,0.000000e+000
4.049844e+002,0.000000e+000
4.078771e+002,0.000000e+000
4.107699e+002,0.000000e+000
4.136626e+002,0.000000e+000
4.165554e+002,0.000000e+000
4.194481e+002,0.000000e+000
4.223409e+002,0.000000e+000
4.252336e+002,0.000000e+000
4.281263e+002,0.000000e+000
4.310191e+002,0.000000e+000
4.339118e+002,0.000000e+000
4.368046e+002,0.000000e+000
4.396973e+002,0.000000e+000
4.425901e+002,0.000000e+000
4.454828e+002,0.000000e+000
4.483756e+002,0.000000e+000
4.512683e+002,0.000000e+000
4.541611e+002,0.000000e+000
4.570538e+002,0.000000e+000
4.599466e+002,0.000000e+000
4.628393e+002,0.000000e+000
4.657321e+002,0.000000e+000
4.686248e+002,0.000000e+000
4.715175e+002,0.000000e+000
4.744103e+002,0.000000e+000
4.773030e+002,0.000000e+000
4.801958e+002,0.000000e+000
4.830885e+002,0.000000e+000
4.859813e+002,0.000000e+000
4.888740e+002,0.000000e+000
4.917668e+002,0.000000e+000
4.946595e+002,0.000000e+000
4.975523e+002,0.000000e+000
5.004450e+002,0.000000e+000
5.033378e+002,0.000000e+000
5.062305e+002,0.000000e+000
5.091233e+002,0.000000e+000
5.120160e+002,0.000000e+000
5.149088e+002,0.000000e+000
5.178015e+002,0.000000e+000
5.206942e+002,0.000000e+000
5.235870e+002,0.000000e+000
5.264797e+002,0.000000e+000
5.293725e+002,0.000000e+000
5.322652e+002,0.000000e+000
5.351580e+002,0.000000e+000
5.380507e+002,0.000000e+000
5.409435e+002,0.000000e+000
5.438362e+002,0.000000e+000
5.467289e+002,0.000000e+000
5.496217e+002,8.355971e+001
5.525145e+002,8.369559e+001
5.554072e+002,8.633154e+001
5.582999e+002,8.405802e+001
5.611927e+002,8.678452e+001
5.640854e+002,8.446944e+001
5.669782e+002,8.128587e+001
5.698709e+002,7.973763e+001
5.727637e+002,8.082083e+001
5.756564e+002,7.716717e+001
5.785492e+002,7.855695e+001
5.814419e+002,7.607797e+001
5.843347e+002,7.721613e+001
5.872274e+002,7.850229e+001
5.901202e+002,8.044467e+001
5.930129e+002,8.137198e+001
5.959056e+002,8.256223e+001
5.987984e+002,8.392889e+001
6.016912e+002,8.388667e+001
6.045839e+002,8.403796e+001
6.074766e+002,8.398216e+001
6.103694e+002,8.515097e+001
6.132621e+002,8.469721e+001
6.161548e+002,8.483462e+001
6.190476e+002,8.544038e+001
6.219404e+002,8.668568e+001
6.248331e+002,8.557870e+001
6.277258e+002,8.594059e+001
6.306186e+002,8.535564e+001
6.335114e+002,8.595258e+001
6.364041e+002,8.575723e+001
6.392968e+002,8.584794e+001
6.421896e+002,8.559198e+001
6.450823e+002,8.540426e+001
6.479751e+002,8.581378e+001
6.508679e+002,8.571362e+001
6.537606e+002,8.608750e+001
6.566533e+002,8.611277e+001
6.595461e+002,8.610542e+001
6.624388e+002,8.587742e+001
6.653315e+002,8.616274e+001
6.682243e+002,8.550166e+001
6.711171e+002,8.590809e+001
6.740098e+002,8.574683e+001
6.769025e+002,8.526817e+001
6.797953e+002,8.503602e+001
6.826880e+002,8.465098e+001
6.855808e+002,8.399367e+001
6.884735e+002,8.337289e+001
6.913663e+002,8.260489e+001
6.942590e+002,8.147699e+001
6.971518e+002,8.036291e+001
7.000445e+002,7.859637e+001
7.029373e+002,7.668391e+001
7.058300e+002,7.427143e+001
7.087228e+002,7.279668e+001
7.116155e+002,7.336678e+001
7.145082e+002,7.514280e+001
7.174010e+002,7.590427e+001
7.202938e+002,7.477930e+001
7.231865e+002,6.970576e+001
7.260792e+002,6.185664e+001
7.289720e+002,5.945899e+001
7.318647e+002,5.641951e+001
7.347575e+002,6.375072e+001
7.376502e+002,7.200961e+001
7.405430e+002,7.737723e+001
7.434357e+002,8.121882e+001
7.463285e+002,8.358958e+001
7.492212e+002,8.520897e+001
7.521140e+002,8.615502e+001
7.550067e+002,8.696138e+001
7.578995e+002,8.752173e+001
7.607922e+002,8.758317e+001
7.636849e+002,8.713823e+001
7.665777e+002,8.637219e+001
7.694705e+002,8.557854e+001
7.723632e+002,8.485558e+001
7.752559e+002,8.533286e+001
7.781487e+002,8.623518e+001
7.810414e+002,8.685449e+001
7.839341e+002,8.736326e+001
7.868269e+002,8.751583e+001
7.897197e+002,8.761394e+001
7.926124e+002,8.764098e+001
7.955051e+002,8.769373e+001
7.983979e+002,8.748453e+001
8.012906e+002,8.742647e+001
8.041834e+002,8.752946e+001
8.070761e+002,8.740481e+001
8.099689e+002,8.740356e+001
8.128616e+002,8.745944e+001
8.157544e+002,8.745672e+001
8.186472e+002,8.741903e+001
8.215399e+002,8.729412e+001
8.244326e+002,8.714957e+001
8.273254e+002,8.675762e+001
8.302181e+002,8.594466e+001
8.331108e+002,8.469711e+001
8.360036e+002,8.256542e+001
8.388964e+002,7.922376e+001
8.417891e+002,7.975348e+001
8.446818e+002,8.400410e+001
8.475746e+002,8.529174e+001
8.504673e+002,8.561792e+001
8.533601e+002,8.557411e+001
8.562528e+002,8.552341e+001
8.591456e+002,8.542638e+001
8.620383e+002,8.525463e+001
8.649311e+002,8.509891e+001
8.678238e+002,8.495487e+001
8.707166e+002,8.488815e+001
8.736093e+002,8.471711e+001
8.765021e+002,8.478324e+001
8.793948e+002,8.456986e+001
8.822875e+002,8.451509e+001
8.851803e+002,8.431076e+001
8.880731e+002,8.413379e+001
8.909658e+002,8.390257e+001
8.938585e+002,8.381281e+001
8.967513e+002,8.375208e+001
8.996440e+002,8.346615e+001
9.025368e+002,8.312074e+001
9.054295e+002,8.262641e+001
9.083223e+002,8.214387e+001
9.112150e+002,8.148456e+001
9.141078e+002,8.079917e+001
9.170005e+002,8.006016e+001
9.198932e+002,7.901833e+001
9.227860e+002,7.761515e+001
9.256788e+002,7.541298e+001
9.285715e+002,7.232561e+001
9.314642e+002,6.863297e+001
9.343570e+002,6.737664e+001
9.372498e+002,7.069412e+001
9.401425e+002,7.368683e+001
9.430352e+002,7.404910e+001
9.459280e+002,7.268188e+001
9.488207e+002,7.010581e+001
9.517134e+002,6.642676e+001
9.546062e+002,6.210767e+001
9.574990e+002,5.731835e+001
9.603917e+002,5.421048e+001
9.632844e+002,5.770300e+001
9.661772e+002,6.572503e+001
9.690699e+002,7.046603e+001
9.719627e+002,7.287580e+001
9.748554e+002,7.464612e+001
9.777482e+002,7.632795e+001
9.806409e+002,7.736677e+001
9.835337e+002,7.752935e+001
9.864265e+002,7.737657e+001
9.893192e+002,7.713164e+001
9.922119e+002,7.690208e+001
9.951047e+002,7.684561e+001
9.979974e+002,7.680515e+001
1.000890e+003,7.655568e+001
1.003783e+003,7.618797e+001
1.006676e+003,7.567009e+001
1.009568e+003,7.505396e+001
1.012461e+003,7.434751e+001
1.015354e+003,7.342582e+001
1.018247e+003,7.246930e+001
1.021139e+003,7.115250e+001
1.024032e+003,6.954230e+001
1.026925e+003,6.749261e+001
1.029818e+003,6.502258e+001
1.032710e+003,6.221978e+001
1.035603e+003,5.855170e+001
1.038496e+003,5.433554e+001
1.041389e+003,4.979943e+001
1.044281e+003,4.640712e+001
1.047174e+003,4.769088e+001
1.050067e+003,5.578051e+001
1.052960e+003,6.367781e+001
1.055852e+003,6.803288e+001
1.058745e+003,6.896705e+001
1.061638e+003,6.669746e+001
1.064531e+003,6.390078e+001
1.067423e+003,6.520072e+001
1.070316e+003,6.971550e+001
1.073209e+003,7.196365e+001
1.076102e+003,7.208771e+001
1.078994e+003,7.076218e+001
1.081887e+003,6.852988e+001
1.084780e+003,6.602796e+001
1.087673e+003,6.357639e+001
1.090565e+003,6.154590e+001
1.093458e+003,6.032181e+001
1.096351e+003,5.961649e+001
1.099244e+003,5.900460e+001
1.102136e+003,5.757632e+001
1.105029e+003,5.533565e+001
1.107922e+003,5.418068e+001
1.110815e+003,5.811096e+001
1.113707e+003,6.463453e+001
1.116600e+003,6.957500e+001
1.119493e+003,7.170682e+001
1.122385e+003,7.131816e+001
1.125278e+003,6.949551e+001
1.128171e+003,6.700893e+001
1.131064e+003,6.401927e+001
1.133957e+003,6.050908e+001
1.136849e+003,5.649272e+001
1.139742e+003,5.183026e+001
1.142635e+003,4.679784e+001
1.145527e+003,4.140590e+001
1.148420e+003,3.620591e+001
1.151313e+003,3.164131e+001
1.154206e+003,2.823789e+001
1.157099e+003,2.608809e+001
1.159991e+003,2.516106e+001
1.162884e+003,2.510388e+001
1.165777e+003,2.569260e+001
1.168669e+003,2.643044e+001
1.171562e+003,2.736530e+001
1.174455e+003,2.826460e+001
1.177348e+003,2.923827e+001
1.180240e+003,3.054452e+001
1.183133e+003,3.165209e+001
1.186026e+003,3.241171e+001
1.188919e+003,3.516366e+001
1.191811e+003,4.054881e+001
1.194704e+003,4.835283e+001
1.197597e+003,5.732367e+001
1.200490e+003,6.467323e+001
1.203382e+003,6.849905e+001
1.206275e+003,7.040709e+001
1.209168e+003,7.134296e+001
1.212061e+003,7.159458e+001
1.214953e+003,7.130983e+001
1.217846e+003,7.050800e+001
1.220739e+003,6.911402e+001
1.223632e+003,6.692056e+001
1.226524e+003,6.325314e+001
1.229417e+003,5.759312e+001
1.232310e+003,5.004813e+001
1.235203e+003,4.266674e+001
1.238095e+003,3.931139e+001
1.240988e+003,4.121782e+001
1.243881e+003,4.569110e+001
1.246774e+003,5.484299e+001
1.249666e+003,6.569244e+001
1.252559e+003,7.209179e+001
1.255452e+003,7.495866e+001
1.258345e+003,7.657314e+001
1.261237e+003,7.773619e+001
1.264130e+003,7.855489e+001
1.267023e+003,7.889751e+001
1.269916e+003,7.879343e+001
1.272808e+003,7.819866e+001
1.275701e+003,7.730888e+001
1.278594e+003,7.634140e+001
1.281487e+003,7.505500e+001
1.284379e+003,7.311918e+001
1.287272e+003,6.948631e+001
1.290165e+003,6.192225e+001
1.293057e+003,5.601217e+001
1.295950e+003,6.058013e+001
1.298843e+003,6.859522e+001
1.301736e+003,7.450430e+001
1.304629e+003,7.746489e+001
1.307521e+003,8.004575e+001
1.310414e+003,8.213883e+001
1.313307e+003,8.346542e+001
1.316200e+003,8.428197e+001
1.319092e+003,8.464561e+001
1.321985e+003,8.461940e+001
1.324878e+003,8.475027e+001
1.327771e+003,8.547282e+001
1.330663e+003,8.634718e+001
1.333556e+003,8.684093e+001
1.336449e+003,8.675971e+001
1.339342e+003,8.615572e+001
1.342234e+003,8.474166e+001
1.345127e+003,8.268690e+001
1.348020e+003,7.990284e+001
1.350912e+003,7.646439e+001
1.353805e+003,7.329683e+001
1.356698e+003,7.071008e+001
1.359591e+003,6.676931e+001
1.362484e+003,6.229833e+001
1.365376e+003,6.019135e+001
1.368269e+003,6.265439e+001
1.371162e+003,6.727583e+001
1.374054e+003,6.980289e+001
1.376947e+003,7.381204e+001
1.379840e+003,7.990818e+001
1.382733e+003,8.363274e+001
1.385625e+003,8.434379e+001
1.388518e+003,8.303051e+001
1.391411e+003,8.056319e+001
1.394304e+003,7.762908e+001
1.397196e+003,7.581857e+001
1.400089e+003,7.881272e+001
1.402982e+003,8.295320e+001
1.405875e+003,8.546709e+001
1.408767e+003,8.486124e+001
1.411660e+003,8.108034e+001
1.414553e+003,7.667625e+001
1.417446e+003,7.528369e+001
1.420338e+003,7.544382e+001
1.423231e+003,8.110807e+001
1.426124e+003,8.593064e+001
1.429017e+003,8.796722e+001
1.431909e+003,8.805270e+001
1.434802e+003,8.710222e+001
1.437695e+003,8.698273e+001
1.440588e+003,8.785349e+001
1.443480e+003,8.845446e+001
1.446373e+003,8.814862e+001
1.449266e+003,8.757990e+001
1.452159e+003,8.656029e+001
1.455051e+003,8.512849e+001
1.457944e+003,8.237832e+001
1.460837e+003,8.150465e+001
1.463730e+003,7.996180e+001
1.466622e+003,8.013648e+001
1.469515e+003,7.630653e+001
1.472408e+003,7.934731e+001
1.475301e+003,8.342599e+001
1.478193e+003,8.429700e+001
1.481086e+003,8.934312e+001
1.483979e+003,9.294540e+001
1.486872e+003,9.463062e+001
1.489764e+003,9.553302e+001
1.492657e+003,9.594505e+001
1.495550e+003,9.625063e+001
1.498443e+003,9.644199e+001
1.501335e+003,9.644756e+001
1.504228e+003,9.652496e+001
1.507121e+003,9.708295e+001
1.510014e+003,9.680008e+001
1.512906e+003,9.675018e+001
1.515799e+003,9.690646e+001
1.518692e+003,9.686546e+001
1.521584e+003,9.703889e+001
1.524477e+003,9.699300e+001
1.527370e+003,9.691309e+001
1.530263e+003,9.688673e+001
1.533156e+003,9.689164e+001
1.536048e+003,9.682251e+001
1.538941e+003,9.692854e+001
1.541834e+003,9.689410e+001
1.544726e+003,9.677967e+001
1.547619e+003,9.667023e+001
1.550512e+003,9.672139e+001
1.553405e+003,9.657944e+001
1.556297e+003,9.655122e+001
1.559190e+003,9.698398e+001
1.562083e+003,9.644283e+001
1.564976e+003,9.643916e+001
1.567869e+003,9.645192e+001
1.570761e+003,9.643706e+001
1.573654e+003,9.639665e+001
1.576547e+003,9.648501e+001
1.579439e+003,9.625771e+001
1.582332e+003,9.622571e+001
1.585225e+003,9.618467e+001
1.588118e+003,9.615211e+001
1.591010e+003,9.604266e+001
1.593903e+003,9.597561e+001
1.596796e+003,9.586025e+001
1.599689e+003,9.573196e+001
1.602581e+003,9.569982e+001
1.605474e+003,9.552137e+001
1.608367e+003,9.541118e+001
1.611260e+003,9.516694e+001
1.614152e+003,9.506977e+001
1.617045e+003,9.514369e+001
1.619938e+003,9.471320e+001
1.622831e+003,9.464371e+001
1.625723e+003,9.431693e+001
1.628616e+003,9.415485e+001
1.631509e+003,9.383426e+001
1.634402e+003,9.377511e+001
1.637294e+003,9.370302e+001
1.640187e+003,9.342148e+001
1.643080e+003,9.328575e+001
1.645973e+003,9.311901e+001
1.648865e+003,9.292065e+001
1.651758e+003,9.261026e+001
1.654651e+003,9.242567e+001
1.657544e+003,9.174446e+001
1.660436e+003,9.124649e+001
1.663329e+003,9.057441e+001
1.666222e+003,8.967464e+001
1.669115e+003,8.883842e+001
1.672007e+003,8.751146e+001
1.674900e+003,8.597591e+001
1.677793e+003,8.387465e+001
1.680686e+003,8.139860e+001
1.683578e+003,7.925083e+001
1.686471e+003,7.678761e+001
1.689364e+003,7.489463e+001
1.692257e+003,7.316447e+001
1.695149e+003,7.127139e+001
1.698042e+003,6.842632e+001
1.700935e+003,6.495266e+001
1.703828e+003,6.146383e+001
1.706720e+003,5.590922e+001
1.709613e+003,4.888978e+001
1.712506e+003,3.939293e+001
1.715399e+003,2.762832e+001
1.718291e+003,1.723973e+001
1.721184e+003,1.503364e+001
1.724077e+003,2.097813e+001
1.726969e+003,3.116051e+001
1.729862e+003,3.885284e+001
1.732755e+003,4.376127e+001
1.735648e+003,5.155019e+001
1.738541e+003,5.806939e+001
1.741433e+003,6.722755e+001
1.744326e+003,7.597570e+001
1.747219e+003,8.272001e+001
1.750111e+003,8.750816e+001
1.753004e+003,9.055272e+001
1.755897e+003,9.194791e+001
1.758790e+003,9.294007e+001
1.761682e+003,9.363976e+001
1.764575e+003,9.400955e+001
1.767468e+003,9.442706e+001
1.770361e+003,9.476026e+001
1.773253e+003,9.532556e+001
1.776146e+003,9.553596e+001
1.779039e+003,9.580867e+001
1.781932e+003,9.607412e+001
1.784824e+003,9.637701e+001
1.787717e+003,9.661185e+001
1.790610e+003,9.691215e+001
1.793503e+003,9.710560e+001
1.796395e+003,9.722351e+001
1.799288e+003,9.743161e+001
1.802181e+003,9.761673e+001
1.805074e+003,9.773809e+001
1.807966e+003,9.773967e+001
1.810859e+003,9.796374e+001
1.813752e+003,9.804874e+001
1.816645e+003,9.823220e+001
1.819537e+003,9.811975e+001
1.822430e+003,9.815790e+001
1.825323e+003,9.830080e+001
1.828216e+003,9.836542e+001
1.831108e+003,9.841609e+001
1.834001e+003,9.840025e+001
1.836894e+003,9.837362e+001
1.839787e+003,9.830762e+001
1.842679e+003,9.842415e+001
1.845572e+003,9.843942e+001
1.848465e+003,9.842867e+001
1.851358e+003,9.854167e+001
1.854250e+003,9.855724e+001
1.857143e+003,9.869308e+001
1.860036e+003,9.870419e+001
1.862929e+003,9.867947e+001
1.865821e+003,9.874972e+001
1.868714e+003,9.874757e+001
1.871607e+003,9.858608e+001
1.874500e+003,9.865025e+001
1.877392e+003,9.861688e+001
1.880285e+003,9.861932e+001
1.883178e+003,9.859008e+001
1.886071e+003,9.855732e+001
1.888963e+003,9.889476e+001
1.891856e+003,9.866169e+001
1.894749e+003,9.867049e+001
1.897642e+003,9.862959e+001
1.900534e+003,9.861250e+001
1.903427e+003,9.857526e+001
1.906320e+003,9.870647e+001
1.909213e+003,9.852065e+001
1.912105e+003,9.857694e+001
1.914998e+003,9.853146e+001
1.917891e+003,9.850799e+001
1.920784e+003,9.853716e+001
1.923676e+003,9.864726e+001
1.926569e+003,9.852729e+001
1.929462e+003,9.863980e+001
1.932354e+003,9.861996e+001
1.935247e+003,9.873274e+001
1.938140e+003,9.878640e+001
1.941033e+003,9.873827e+001
1.943926e+003,9.862938e+001
1.946818e+003,9.869664e+001
1.949711e+003,9.871004e+001
1.952604e+003,9.868812e+001
1.955496e+003,9.882323e+001
1.958389e+003,9.876220e+001
1.961282e+003,9.856757e+001
1.964175e+003,9.875514e+001
1.967068e+003,9.879199e+001
1.969960e+003,9.874450e+001
1.972853e+003,9.865768e+001
1.975746e+003,9.862261e+001
1.978638e+003,9.809852e+001
1.981531e+003,9.856954e+001
1.984424e+003,9.865974e+001
1.987317e+003,9.837920e+001
1.990209e+003,9.867455e+001
1.993102e+003,9.874842e+001
1.995995e+003,9.868623e+001
1.998888e+003,9.856753e+001
2.001780e+003,9.850520e+001
2.004673e+003,9.883629e+001
2.007566e+003,9.864933e+001
2.010459e+003,9.847929e+001
2.013351e+003,9.843153e+001
2.016244e+003,9.876868e+001
2.019137e+003,9.871431e+001
2.022030e+003,9.834334e+001
2.024922e+003,9.882915e+001
2.027815e+003,9.868166e+001
2.030708e+003,9.825507e+001
2.033601e+003,9.844130e+001
2.036493e+003,9.857748e+001
2.039386e+003,9.844398e+001
2.042279e+003,9.832056e+001
2.045172e+003,9.844924e+001
2.048064e+003,9.834367e+001
2.050957e+003,9.826904e+001
2.053850e+003,9.874735e+001
2.056743e+003,9.844734e+001
2.059635e+003,9.851768e+001
2.062528e+003,9.850230e+001
2.065421e+003,9.850883e+001
2.068314e+003,9.848607e+001
2.071206e+003,9.825626e+001
2.074099e+003,9.827740e+001
2.076992e+003,9.841599e+001
2.079885e+003,9.820877e+001
2.082777e+003,9.821031e+001
2.085670e+003,9.830753e+001
2.088563e+003,9.844303e+001
2.091456e+003,9.830602e+001
2.094348e+003,9.840125e+001
2.097241e+003,9.805423e+001
2.100134e+003,9.824626e+001
2.103027e+003,9.828971e+001
2.105919e+003,9.829115e+001
2.108812e+003,9.830573e+001
2.111705e+003,9.835530e+001
2.114598e+003,9.840787e+001
2.117490e+003,9.849541e+001
2.120383e+003,9.858351e+001
2.123276e+003,9.855882e+001
2.126168e+003,9.863784e+001
2.129061e+003,9.897319e+001
2.131954e+003,9.895387e+001
2.134847e+003,9.897508e+001
2.137740e+003,9.873771e+001
2.140632e+003,9.882002e+001
2.143525e+003,9.895106e+001
2.146418e+003,9.877235e+001
2.149311e+003,9.868093e+001
2.152203e+003,9.890900e+001
2.155096e+003,9.882986e+001
2.157989e+003,9.914064e+001
2.160882e+003,9.798217e+001
2.163774e+003,9.816570e+001
2.166667e+003,9.848101e+001
2.169560e+003,9.844827e+001
2.172452e+003,9.866571e+001
2.175345e+003,9.860612e+001
2.178238e+003,9.901350e+001
2.181131e+003,9.880712e+001
2.184023e+003,9.862595e+001
2.186916e+003,9.839280e+001
2.189809e+003,9.844949e+001
2.192702e+003,9.870132e+001
2.195594e+003,9.864513e+001
2.198487e+003,9.868726e+001
2.201380e+003,9.860993e+001
2.204273e+003,9.869332e+001
2.207166e+003,9.882006e+001
2.210058e+003,9.863844e+001
2.212951e+003,9.872779e+001
2.215844e+003,9.869730e+001
2.218736e+003,9.868170e+001
2.221629e+003,9.864005e+001
2.224522e+003,9.853471e+001
2.227415e+003,9.867095e+001
2.230307e+003,9.872872e+001
2.233200e+003,9.871513e+001
2.236093e+003,9.841619e+001
2.238986e+003,9.850996e+001
2.241878e+003,9.874439e+001
2.244771e+003,9.859729e+001
2.247664e+003,9.877871e+001
2.250557e+003,9.858340e+001
2.253449e+003,9.867196e+001
2.256342e+003,9.876271e+001
2.259235e+003,9.875391e+001
2.262128e+003,9.847092e+001
2.265020e+003,9.861536e+001
2.267913e+003,9.864515e+001
2.270806e+003,9.859895e+001
2.273699e+003,9.859108e+001
2.276591e+003,9.848266e+001
2.279484e+003,9.845743e+001
2.282377e+003,9.834539e+001
2.285270e+003,9.822920e+001
2.288162e+003,9.835174e+001
2.291055e+003,9.831084e+001
2.293948e+003,9.845631e+001
2.296841e+003,9.832765e+001
2.299733e+003,9.841400e+001
2.302626e+003,9.832256e+001
2.305519e+003,9.816626e+001
2.308412e+003,9.798003e+001
2.311304e+003,9.800992e+001
2.314197e+003,9.789674e+001
2.317090e+003,9.775709e+001
2.319983e+003,9.754726e+001
2.322875e+003,9.727319e+001
2.325768e+003,9.755450e+001
2.328661e+003,9.758780e+001
2.331553e+003,9.751791e+001
2.334446e+003,9.743401e+001
2.337339e+003,9.742471e+001
2.340232e+003,9.730157e+001
2.343125e+003,9.726741e+001
2.346017e+003,9.759498e+001
2.348910e+003,9.779532e+001
2.351803e+003,9.750014e+001
2.354696e+003,9.721684e+001
2.357588e+003,9.723541e+001
2.360481e+003,9.745263e+001
2.363374e+003,9.724377e+001
2.366267e+003,9.760082e+001
2.369159e+003,9.751236e+001
2.372052e+003,9.787495e+001
2.374945e+003,9.815065e+001
2.377837e+003,9.842599e+001
2.380730e+003,9.856421e+001
2.383623e+003,9.871514e+001
2.386516e+003,9.876408e+001
2.389408e+003,9.886369e+001
2.392301e+003,9.874585e+001
2.395194e+003,9.879735e+001
2.398087e+003,9.878267e+001
2.400979e+003,9.878500e+001
2.403872e+003,9.879511e+001
2.406765e+003,9.869545e+001
2.409658e+003,9.859563e+001
2.412551e+003,9.861262e+001
2.415443e+003,9.859914e+001
2.418336e+003,9.868346e+001
2.421229e+003,9.857013e+001
2.424121e+003,9.868209e+001
2.427014e+003,9.870097e+001
2.429907e+003,9.882153e+001
2.432800e+003,9.862571e+001
2.435692e+003,9.878027e+001
2.438585e+003,9.876398e+001
2.441478e+003,9.868581e+001
2.444371e+003,9.871655e+001
2.447263e+003,9.869063e+001
2.450156e+003,9.869471e+001
2.453049e+003,9.878397e+001
2.455942e+003,9.870062e+001
2.458834e+003,9.871227e+001
2.461727e+003,9.879813e+001
2.464620e+003,9.870247e+001
2.467513e+003,9.871034e+001
2.470405e+003,9.871450e+001
2.473298e+003,9.876111e+001
2.476191e+003,9.867176e+001
2.479084e+003,9.871909e+001
2.481976e+003,9.876886e+001
2.484869e+003,9.862258e+001
2.487762e+003,9.872147e+001
2.490655e+003,9.867702e+001
2.493547e+003,9.871052e+001
2.496440e+003,9.877067e+001
2.499333e+003,9.872560e+001
2.502226e+003,9.873109e+001
2.505118e+003,9.882613e+001
2.508011e+003,9.873738e+001
2.510904e+003,9.875217e+001
2.513797e+003,9.867408e+001
2.516689e+003,9.874386e+001
2.519582e+003,9.871174e+001
2.522475e+003,9.859953e+001
2.525368e+003,9.862145e+001
2.528260e+003,9.858630e+001
2.531153e+003,9.858321e+001
2.534046e+003,9.849429e+001
2.536938e+003,9.857897e+001
2.539831e+003,9.856587e+001
2.542724e+003,9.860780e+001
2.545617e+003,9.851380e+001
2.548510e+003,9.869159e+001
2.551402e+003,9.868089e+001
2.554295e+003,9.870176e+001
2.557188e+003,9.856049e+001
2.560081e+003,9.859451e+001
2.562973e+003,9.866035e+001
2.565866e+003,9.848686e+001
2.568759e+003,9.856271e+001
2.571652e+003,9.846269e+001
2.574544e+003,9.855898e+001
2.577437e+003,9.851927e+001
2.580330e+003,9.852612e+001
2.583222e+003,9.853519e+001
2.586115e+003,9.855248e+001
2.589008e+003,9.857608e+001
2.591901e+003,9.854816e+001
2.594793e+003,9.857951e+001
2.597686e+003,9.845414e+001
2.600579e+003,9.848756e+001
2.603472e+003,9.846738e+001
2.606365e+003,9.847369e+001
2.609257e+003,9.848485e+001
2.612150e+003,9.849134e+001
2.615043e+003,9.847254e+001
2.617936e+003,9.842587e+001
2.620828e+003,9.844667e+001
2.623721e+003,9.849710e+001
2.626614e+003,9.846204e+001
2.629506e+003,9.839648e+001
2.632399e+003,9.837940e+001
2.635292e+003,9.832129e+001
2.638185e+003,9.834924e+001
2.641077e+003,9.828815e+001
2.643970e+003,9.822720e+001
2.646863e+003,9.827605e+001
2.649756e+003,9.823953e+001
2.652648e+003,9.827512e+001
2.655541e+003,9.823792e+001
2.658434e+003,9.829923e+001
2.661327e+003,9.830484e+001
2.664219e+003,9.829733e+001
2.667112e+003,9.833018e+001
2.670005e+003,9.833757e+001
2.672898e+003,9.829501e+001
2.675790e+003,9.827174e+001
2.678683e+003,9.827079e+001
2.681576e+003,9.830472e+001
2.684469e+003,9.830193e+001
2.687361e+003,9.829871e+001
2.690254e+003,9.820599e+001
2.693147e+003,9.825323e+001
2.696040e+003,9.827847e+001
2.698932e+003,9.827027e+001
2.701825e+003,9.824577e+001
2.704718e+003,9.822878e+001
2.707611e+003,9.815913e+001
2.710503e+003,9.824359e+001
2.713396e+003,9.825636e+001
2.716289e+003,9.818113e+001
2.719182e+003,9.818455e+001
2.722074e+003,9.814985e+001
2.724967e+003,9.818234e+001
2.727860e+003,9.817999e+001
2.730753e+003,9.818599e+001
2.733645e+003,9.819939e+001
2.736538e+003,9.811073e+001
2.739431e+003,9.812865e+001
2.742323e+003,9.808936e+001
2.745216e+003,9.807264e+001
2.748109e+003,9.798548e+001
2.751002e+003,9.803741e+001
2.753895e+003,9.798399e+001
2.756787e+003,9.796599e+001
2.759680e+003,9.800002e+001
2.762573e+003,9.794920e+001
2.765466e+003,9.790810e+001
2.768358e+003,9.781824e+001
2.771251e+003,9.786990e+001
2.774144e+003,9.777751e+001
2.777037e+003,9.781268e+001
2.779929e+003,9.781384e+001
2.782822e+003,9.771463e+001
2.785715e+003,9.770742e+001
2.788607e+003,9.767435e+001
2.791500e+003,9.765522e+001
2.794393e+003,9.758320e+001
2.797286e+003,9.757803e+001
2.800178e+003,9.748609e+001
2.803071e+003,9.736344e+001
2.805964e+003,9.728799e+001
2.808857e+003,9.715266e+001
2.811750e+003,9.697545e+001
2.814642e+003,9.680940e+001
2.817535e+003,9.656179e+001
2.820428e+003,9.644823e+001
2.823321e+003,9.618639e+001
2.826213e+003,9.598717e+001
2.829106e+003,9.572650e+001
2.831999e+003,9.546772e+001
2.834891e+003,9.514315e+001
2.837784e+003,9.460780e+001
2.840677e+003,9.386255e+001
2.843570e+003,9.291965e+001
2.846462e+003,9.162152e+001
2.849355e+003,8.984279e+001
2.852248e+003,8.787208e+001
2.855141e+003,8.567689e+001
2.858033e+003,8.338720e+001
2.860926e+003,8.127048e+001
2.863819e+003,7.993571e+001
2.866712e+003,8.027438e+001
2.869604e+003,8.177833e+001
2.872497e+003,8.406724e+001
2.875390e+003,8.632267e+001
2.878283e+003,8.776990e+001
2.881175e+003,8.845562e+001
2.884068e+003,8.853768e+001
2.886961e+003,8.786689e+001
2.889854e+003,8.646275e+001
2.892746e+003,8.485490e+001
2.895639e+003,8.429245e+001
2.898532e+003,8.489628e+001
2.901425e+003,8.486928e+001
2.904317e+003,8.420296e+001
2.907210e+003,8.328062e+001
2.910103e+003,8.238697e+001
2.912996e+003,8.160091e+001
2.915888e+003,8.063176e+001
2.918781e+003,7.923605e+001
2.921674e+003,7.777518e+001
2.924567e+003,7.658216e+001
2.927459e+003,7.579871e+001
2.930352e+003,7.493590e+001
2.933245e+003,7.359460e+001
2.936137e+003,7.255860e+001
2.939030e+003,7.195712e+001
2.941923e+003,7.154273e+001
2.944816e+003,7.141031e+001
2.947708e+003,7.238562e+001
2.950601e+003,7.420206e+001
2.953494e+003,7.566655e+001
2.956387e+003,7.696869e+001
2.959280e+003,7.915959e+001
2.962172e+003,8.179946e+001
2.965065e+003,8.404516e+001
2.967958e+003,8.616670e+001
2.970851e+003,8.822219e+001
2.973743e+003,9.013481e+001
2.976636e+003,9.170293e+001
2.979529e+003,9.292432e+001
2.982422e+003,9.401305e+001
2.985314e+003,9.475676e+001
2.988207e+003,9.542249e+001
2.991100e+003,9.594207e+001
2.993992e+003,9.639341e+001
2.996885e+003,9.670806e+001
2.999778e+003,9.698286e+001
3.002671e+003,9.727449e+001
3.005563e+003,9.745623e+001
3.008456e+003,9.758826e+001
3.011349e+003,9.775955e+001
3.014242e+003,9.781730e+001
3.017135e+003,9.783776e+001
3.020027e+003,9.785332e+001
3.022920e+003,9.802856e+001
3.025813e+003,9.797223e+001
3.028706e+003,9.807847e+001
3.031598e+003,9.804942e+001
3.034491e+003,9.816503e+001
3.037384e+003,9.823732e+001
3.040276e+003,9.817730e+001
3.043169e+003,9.810297e+001
3.046062e+003,9.821434e+001
3.048955e+003,9.826131e+001
3.051847e+003,9.826024e+001
3.054740e+003,9.827187e+001
3.057633e+003,9.821569e+001
3.060526e+003,9.826510e+001
3.063418e+003,9.819829e+001
3.066311e+003,9.821742e+001
3.069204e+003,9.827216e+001
3.072097e+003,9.824290e+001
3.074990e+003,9.832752e+001
3.077882e+003,9.833974e+001
3.080775e+003,9.836731e+001
3.083668e+003,9.829670e+001
3.086560e+003,9.833985e+001
3.089453e+003,9.828651e+001
3.092346e+003,9.827029e+001
3.095239e+003,9.835934e+001
3.098131e+003,9.835561e+001
3.101024e+003,9.836337e+001
3.103917e+003,9.841220e+001
3.106810e+003,9.828058e+001
3.109702e+003,9.836123e+001
3.112595e+003,9.837885e+001
3.115488e+003,9.836263e+001
3.118381e+003,9.834833e+001
3.121273e+003,9.830738e+001
3.124166e+003,9.837357e+001
3.127059e+003,9.833039e+001
3.129952e+003,9.834978e+001
3.132844e+003,9.833553e+001
3.135737e+003,9.832032e+001
3.138630e+003,9.834912e+001
3.141522e+003,9.838789e+001
3.144415e+003,9.843116e+001
3.147308e+003,9.844536e+001
3.150201e+003,9.836923e+001
3.153094e+003,9.828757e+001
3.155986e+003,9.837253e+001
3.158879e+003,9.844534e+001
3.161772e+003,9.841531e+001
3.164665e+003,9.836890e+001
3.167557e+003,9.842809e+001
3.170450e+003,9.829299e+001
3.173343e+003,9.845049e+001
3.176236e+003,9.823267e+001
3.179128e+003,9.840175e+001
3.182021e+003,9.840284e+001
3.184914e+003,9.838735e+001
3.187806e+003,9.845290e+001
3.190699e+003,9.839748e+001
3.193592e+003,9.831259e+001
3.196485e+003,9.837743e+001
3.199377e+003,9.838242e+001
3.202270e+003,9.840778e+001
3.205163e+003,9.832975e+001
3.208056e+003,9.837615e+001
3.210948e+003,9.837717e+001
3.213841e+003,9.840131e+001
3.216734e+003,9.835548e+001
3.219627e+003,9.842095e+001
3.222520e+003,9.827751e+001
3.225412e+003,9.842661e+001
3.228305e+003,9.841478e+001
3.231198e+003,9.828612e+001
3.234091e+003,9.840276e+001
3.236983e+003,9.837395e+001
3.239876e+003,9.830424e+001
3.242769e+003,9.833020e+001
3.245661e+003,9.833078e+001
3.248554e+003,9.846835e+001
3.251447e+003,9.824955e+001
3.254340e+003,9.823547e+001
3.257232e+003,9.830967e+001
3.260125e+003,9.843549e+001
3.263018e+003,9.829378e+001
3.265911e+003,9.827808e+001
3.268803e+003,9.833282e+001
3.271696e+003,9.826128e+001
3.274589e+003,9.826288e+001
3.277482e+003,9.823023e+001
3.280375e+003,9.832279e+001
3.283267e+003,9.827894e+001
3.286160e+003,9.824734e+001
3.289053e+003,9.822557e+001
3.291945e+003,9.823814e+001
3.294838e+003,9.823868e+001
3.297731e+003,9.823190e+001
3.300624e+003,9.827686e+001
3.303516e+003,9.826814e+001
3.306409e+003,9.827732e+001
3.309302e+003,9.825757e+001
3.312195e+003,9.838227e+001
3.315087e+003,9.835699e+001
3.317980e+003,9.815346e+001
3.320873e+003,9.829572e+001
3.323766e+003,9.829533e+001
3.326658e+003,9.831345e+001
3.329551e+003,9.826005e+001
3.332444e+003,9.825177e+001
3.335337e+003,9.820615e+001
3.338229e+003,9.829767e+001
3.341122e+003,9.831470e+001
3.344015e+003,9.824338e+001
3.346907e+003,9.834907e+001
3.349800e+003,9.826860e+001
3.352693e+003,9.829724e+001
3.355586e+003,9.832798e+001
3.358479e+003,9.827867e+001
3.361371e+003,9.837621e+001
3.364264e+003,9.824387e+001
3.367157e+003,9.846632e+001
3.370050e+003,9.836073e+001
3.372942e+003,9.831403e+001
3.375835e+003,9.825645e+001
3.378728e+003,9.843536e+001
3.381621e+003,9.840392e+001
3.384513e+003,9.833868e+001
3.387406e+003,9.840887e+001
3.390299e+003,9.831793e+001
3.393191e+003,9.832865e+001
3.396084e+003,9.830937e+001
3.398977e+003,9.830228e+001
3.401870e+003,9.827524e+001
3.404762e+003,9.829398e+001
3.407655e+003,9.823942e+001
3.410548e+003,9.821163e+001
3.413441e+003,9.816756e+001
3.416333e+003,9.809160e+001
3.419226e+003,9.801615e+001
3.422119e+003,9.804226e+001
3.425012e+003,9.797130e+001
3.427905e+003,9.788052e+001
3.430797e+003,9.773592e+001
3.433690e+003,9.761888e+001
3.436583e+003,9.738701e+001
3.439475e+003,9.750531e+001
3.442368e+003,9.766887e+001
3.445261e+003,9.776394e+001
3.448154e+003,9.771590e+001
3.451046e+003,9.774734e+001
3.453939e+003,9.796165e+001
3.456832e+003,9.790932e+001
3.459725e+003,9.798795e+001
3.462617e+003,9.804363e+001
3.465510e+003,9.825291e+001
3.468403e+003,9.825520e+001
3.471296e+003,9.833533e+001
3.474188e+003,9.825005e+001
3.477081e+003,9.844580e+001
3.479974e+003,9.832870e+001
3.482867e+003,9.846574e+001
3.485760e+003,9.851697e+001
3.488652e+003,9.847404e+001
3.491545e+003,9.861749e+001
3.494438e+003,9.827430e+001
3.497330e+003,9.831995e+001
3.500223e+003,9.849181e+001
3.503116e+003,9.846125e+001
3.506009e+003,9.853246e+001
3.508901e+003,9.836542e+001
3.511794e+003,9.851438e+001
3.514687e+003,9.854263e+001
3.517580e+003,9.852376e+001
3.520472e+003,9.857691e+001
3.523365e+003,9.851508e+001
3.526258e+003,9.845115e+001
3.529151e+003,9.840473e+001
3.532043e+003,9.851702e+001
3.534936e+003,9.854933e+001
3.537829e+003,9.849763e+001
3.540722e+003,9.854159e+001
3.543614e+003,9.853654e+001
3.546507e+003,9.847765e+001
3.549400e+003,9.862063e+001
3.552292e+003,9.868612e+001
3.555185e+003,9.856528e+001
3.558078e+003,9.864739e+001
3.560971e+003,9.870262e+001
3.563864e+003,9.865648e+001
3.566756e+003,9.880178e+001
3.569649e+003,9.872277e+001
3.572542e+003,9.863330e+001
3.575435e+003,9.890253e+001
3.578327e+003,9.881857e+001
3.581220e+003,9.884468e+001
3.584113e+003,9.885146e+001
3.587006e+003,9.909541e+001
3.589898e+003,9.875195e+001
3.592791e+003,9.876612e+001
3.595684e+003,9.889778e+001
3.598576e+003,9.892276e+001
3.601469e+003,9.872144e+001
3.604362e+003,9.878577e+001
3.607255e+003,9.875884e+001
3.610147e+003,9.887396e+001
3.613040e+003,9.896552e+001
3.615933e+003,9.883031e+001
3.618826e+003,9.904620e+001
3.621719e+003,9.875140e+001
3.624611e+003,9.895513e+001
3.627504e+003,9.895558e+001
3.630397e+003,9.890735e+001
3.633290e+003,9.883999e+001
3.636182e+003,9.880065e+001
3.639075e+003,9.882775e+001
3.641968e+003,9.901100e+001
3.644860e+003,9.907892e+001
3.647753e+003,9.942213e+001
3.650646e+003,9.927644e+001
3.653539e+003,9.900931e+001
3.656431e+003,9.911922e+001
3.659324e+003,9.901926e+001
3.662217e+003,9.903298e+001
3.665110e+003,9.911875e+001
3.668002e+003,9.894799e+001
3.670895e+003,9.931882e+001
3.673788e+003,9.901273e+001
3.676681e+003,9.916511e+001
3.679573e+003,9.913562e+001
3.682466e+003,9.900651e+001
3.685359e+003,9.916151e+001
3.688252e+003,9.932372e+001
3.691145e+003,9.951886e+001
3.694037e+003,9.921368e+001
3.696930e+003,9.910915e+001
3.699823e+003,9.904656e+001
3.702715e+003,9.909186e+001
3.705608e+003,9.899969e+001
3.708501e+003,9.904401e+001
3.711394e+003,9.927441e+001
3.714286e+003,9.919074e+001
3.717179e+003,9.920089e+001
3.720072e+003,9.913672e+001
3.722965e+003,9.899224e+001
3.725857e+003,9.904337e+001
3.728750e+003,9.916875e+001
3.731643e+003,9.933728e+001
3.734536e+003,9.936386e+001
3.737428e+003,9.929942e+001
3.740321e+003,9.924850e+001
3.743214e+003,9.905055e+001
3.746107e+003,9.922398e+001
3.748999e+003,9.933698e+001
3.751892e+003,9.960403e+001
3.754785e+003,9.917974e+001
3.757677e+003,9.917563e+001
3.760570e+003,9.926658e+001
3.763463e+003,9.908913e+001
3.766356e+003,9.910944e+001
3.769249e+003,9.929205e+001
3.772141e+003,9.919876e+001
3.775034e+003,9.907693e+001
3.777927e+003,9.926105e+001
3.780820e+003,9.916394e+001
3.783712e+003,9.915909e+001
3.786605e+003,9.913811e+001
3.789498e+003,9.907577e+001
3.792391e+003,9.920814e+001
3.795283e+003,9.919849e+001
3.798176e+003,9.911632e+001
3.801069e+003,9.924049e+001
3.803961e+003,9.930377e+001
3.806854e+003,9.936584e+001
3.809747e+003,9.918658e+001
3.812640e+003,9.917999e+001
3.815532e+003,9.962833e+001
3.818425e+003,9.924271e+001
3.821318e+003,9.925894e+001
3.824211e+003,9.908601e+001
3.827104e+003,9.938026e+001
3.829996e+003,9.918198e+001
3.832889e+003,9.921385e+001
3.835782e+003,9.923876e+001
3.838675e+003,9.944601e+001
3.841567e+003,9.928699e+001
3.844460e+003,9.922302e+001
3.847353e+003,9.911852e+001
3.850245e+003,9.918517e+001
3.853138e+003,9.945231e+001
3.856031e+003,9.910976e+001
3.858924e+003,9.902184e+001
3.861816e+003,9.913075e+001
3.864709e+003,9.928974e+001
3.867602e+003,9.927640e+001
3.870495e+003,9.943579e+001
3.873387e+003,9.909087e+001
3.876280e+003,9.904024e+001
3.879173e+003,9.924121e+001
3.882066e+003,9.911488e+001
3.884958e+003,9.911037e+001
3.887851e+003,9.905714e+001
3.890744e+003,9.919666e+001
3.893637e+003,9.909266e+001
3.896529e+003,9.908186e+001
3.899422e+003,9.924046e+001
3.902315e+003,9.899562e+001
3.905208e+003,9.927042e+001
3.908100e+003,9.903687e+001
3.910993e+003,9.916444e+001
3.913886e+003,9.919046e+001
3.916779e+003,9.909320e+001
3.919671e+003,9.932204e+001
3.922564e+003,9.916330e+001
3.925457e+003,9.920322e+001
3.928350e+003,9.916424e+001
3.931242e+003,9.908318e+001
3.934135e+003,9.901159e+001
3.937028e+003,9.909135e+001
3.939921e+003,9.920470e+001
3.942813e+003,9.918386e+001
3.945706e+003,9.905025e+001
3.948599e+003,9.918823e+001
3.951492e+003,9.919087e+001
3.954384e+003,9.916326e+001
3.957277e+003,9.915260e+001
3.960170e+003,9.904491e+001
3.963063e+003,9.911020e+001
3.965955e+003,9.900670e+001
3.968848e+003,9.913173e+001
3.971741e+003,9.906718e+001
3.974634e+003,9.897775e+001
3.977526e+003,9.910936e+001
3.980419e+003,9.905881e+001
3.983312e+003,9.911134e+001
3.986205e+003,9.911988e+001
3.989097e+003,9.909154e+001
3.991990e+003,9.905959e+001
3.994883e+003,9.910724e+001
3.997776e+003,9.907198e+001
4.000668e+003,0.000000e+000