File: FTIR Data (PCL)/All Data/PCL_NaOH_2_2.CSV
3.991989e+002,0.000000e+000
4.020916e+002,0.000000e+000
4.049844e+002,0.000000e+000
4.078771e+002,0.000000e+000
4.107699e+002,0.000000e+000
4.136626e+002,0.000000e+000
4.165554e+002,0.000000e+000
4.194481e+002,0.000000e+000
4.223409e+002,0.000000e+000
4.252336e+002,0.000000e+000
4.281263e+002,0.000000e+000
4.310191e+002,0.000000e+000
4.339118e+002,0.000000e+000
4.368046e+002,0.000000e+000
4.396973e+002,0.000000e+000
4.425901e+002,0.000000e+000
4.454828e+002,0.000000e+000
4.483756e+002,0.000000e+000
4.512683e+002,0.000000e+000
4.541611e+002,0.000000e+000
4.570538e+002,0.000000e+000
4.599466e+002,0.000000e+000
4.628393e+002,0.000000e+000
4.657321e+002,0.000000e+000
4.686248e+002,0.000000e+000
4.715175e+002,0.000000e+000
4.744103e+002,0.000000e+000
4.773030e+002,0.000000e+000
4.801958e+002,0.000000e+000
4.830885e+002,0.000000e+000
4.859813e+002,0.000000e+000
4.888740e+002,0.000000e+000
4.917668e+002,0.000000e+000
4.946595e+002,0.000000e+000
4.975523e+002,0.000000e+000
5.004450e+002,0.000000e+000
5.033378e+002,0.000000e+000
5.062305e+002,0.000000e+000
5.091233e+002,0.000000e+000
5.120160e+002,0.000000e+000
5.149088e+002,0.000000e+000
5.178015e+002,0.000000e+000
5.206942e+002,0.000000e+000
5.235870e+002,0.000000e+000
5.264797e+002,0.000000e+000
5.293725e+002,0.000000e+000
5.322652e+002,0.000000e+000
5.351580e+002,0.000000e+000
5.380507e+002,0.000000e+000
5.409435e+002,0.000000e+000
5.438362e+002,0.000000e+000
5.467289e+002,0.000000e+000
5.496217e+002,8.609876e+001
5.525145e+002,8.531297e+001
5.554072e+002,8.927909e+001
5.582999e+002,8.467321e+001
5.611927e+002,8.571783e+001
5.640854e+002,8.459239e+001
5.669782e+002,8.350979e+001
5.698709e+002,8.263426e+001
5.727637e+002,8.023338e+001
5.756564e+002,7.795132e+001
5.785492e+002,7.880212e+001
5.814419e+002,7.708464e+001
5.843347e+002,7.820570e+001
5.872274e+002,7.937408e+001
5.901202e+002,8.114145e+001
5.930129e+002,8.116922e+001
5.959056e+002,8.311894e+001
5.987984e+002,8.342549e+001
6.016912e+002,8.411437e+001
6.045839e+002,8.461700e+001
6.074766e+002,8.528835e+001
6.103694e+002,8.483648e+001
6.132621e+002,8.492531e+001
6.161548e+002,8.556312e+001
6.190476e+002,8.631422e+001
6.219404e+002,8.714544e+001
6.248331e+002,8.535352e+001
6.277258e+002,8.621126e+001
6.306186e+002,8.583684e+001
6.335114e+002,8.574182e+001
6.364041e+002,8.612141e+001
6.392968e+002,8.554028e+001
6.421896e+002,8.587275e+001
6.450823e+002,8.591087e+001
6.479751e+002,8.607466e+001
6.508679e+002,8.598302e+001
6.537606e+002,8.625576e+001
6.566533e+002,8.630518e+001
6.595461e+002,8.615127e+001
6.624388e+002,8.602158e+001
6.653315e+002,8.617982e+001
6.682243e+002,8.587258e+001
6.711171e+002,8.597498e+001
6.740098e+002,8.585146e+001
6.769025e+002,8.532430e+001
6.797953e+002,8.513783e+001
6.826880e+002,8.480455e+001
6.855808e+002,8.426109e+001
6.884735e+002,8.344925e+001
6.913663e+002,8.266080e+001
6.942590e+002,8.153786e+001
6.971518e+002,8.031925e+001
7.000445e+002,7.851579e+001
7.029373e+002,7.658434e+001
7.058300e+002,7.425122e+001
7.087228e+002,7.266832e+001
7.116155e+002,7.329003e+001
7.145082e+002,7.499072e+001
7.174010e+002,7.584607e+001
7.202938e+002,7.479916e+001
7.231865e+002,6.977876e+001
7.260792e+002,6.184648e+001
7.289720e+002,5.946238e+001
7.318647e+002,5.653445e+001
7.347575e+002,6.361005e+001
7.376502e+002,7.169090e+001
7.405430e+002,7.715191e+001
7.434357e+002,8.111271e+001
7.463285e+002,8.353048e+001
7.492212e+002,8.505291e+001
7.521140e+002,8.618340e+001
7.550067e+002,8.700520e+001
7.578995e+002,8.748465e+001
7.607922e+002,8.761063e+001
7.636849e+002,8.720228e+001
7.665777e+002,8.629424e+001
7.694705e+002,8.558895e+001
7.723632e+002,8.486730e+001
7.752559e+002,8.529335e+001
7.781487e+002,8.613249e+001
7.810414e+002,8.688811e+001
7.839341e+002,8.741405e+001
7.868269e+002,8.761124e+001
7.897197e+002,8.771506e+001
7.926124e+002,8.773496e+001
7.955051e+002,8.770978e+001
7.983979e+002,8.765009e+001
8.012906e+002,8.747594e+001
8.041834e+002,8.754488e+001
8.070761e+002,8.747094e+001
8.099689e+002,8.753568e+001
8.128616e+002,8.752549e+001
8.157544e+002,8.748039e+001
8.186472e+002,8.745915e+001
8.215399e+002,8.740868e+001
8.244326e+002,8.700363e+001
8.273254e+002,8.675232e+001
8.302181e+002,8.608418e+001
8.331108e+002,8.469684e+001
8.360036e+002,8.251034e+001
8.388964e+002,7.901022e+001
8.417891e+002,7.959574e+001
8.446818e+002,8.383945e+001
8.475746e+002,8.521662e+001
8.504673e+002,8.551547e+001
8.533601e+002,8.544084e+001
8.562528e+002,8.537144e+001
8.591456e+002,8.525890e+001
8.620383e+002,8.517336e+001
8.649311e+002,8.498896e+001
8.678238e+002,8.481145e+001
8.707166e+002,8.471866e+001
8.736093e+002,8.468074e+001
8.765021e+002,8.465580e+001
8.793948e+002,8.453908e+001
8.822875e+002,8.434744e+001
8.851803e+002,8.409871e+001
8.880731e+002,8.397545e+001
8.909658e+002,8.378300e+001
8.938585e+002,8.367395e+001
8.967513e+002,8.355481e+001
8.996440e+002,8.331728e+001
9.025368e+002,8.302531e+001
9.054295e+002,8.253076e+001
9.083223e+002,8.202649e+001
9.112150e+002,8.134715e+001
9.141078e+002,8.070708e+001
9.170005e+002,7.991895e+001
9.198932e+002,7.884393e+001
9.227860e+002,7.739919e+001
9.256788e+002,7.522680e+001
9.285715e+002,7.212303e+001
9.314642e+002,6.842148e+001
9.343570e+002,6.699431e+001
9.372498e+002,7.031649e+001
9.401425e+002,7.336839e+001
9.430352e+002,7.372707e+001
9.459280e+002,7.235010e+001
9.488207e+002,6.972176e+001
9.517134e+002,6.603955e+001
9.546062e+002,6.168225e+001
9.574990e+002,5.696402e+001
9.603917e+002,5.389693e+001
9.632844e+002,5.731578e+001
9.661772e+002,6.528716e+001
9.690699e+002,7.001389e+001
9.719627e+002,7.245479e+001
9.748554e+002,7.417976e+001
9.777482e+002,7.586613e+001
9.806409e+002,7.687312e+001
9.835337e+002,7.707011e+001
9.864265e+002,7.688220e+001
9.893192e+002,7.664370e+001
9.922119e+002,7.634133e+001
9.951047e+002,7.632507e+001
9.979974e+002,7.626605e+001
1.000890e+003,7.604172e+001
1.003783e+003,7.565516e+001
1.006676e+003,7.509441e+001
1.009568e+003,7.447424e+001
1.012461e+003,7.380386e+001
1.015354e+003,7.287904e+001
1.018247e+003,7.184864e+001
1.021139e+003,7.064398e+001
1.024032e+003,6.903090e+001
1.026925e+003,6.704070e+001
1.029818e+003,6.456621e+001
1.032710e+003,6.183728e+001
1.035603e+003,5.824835e+001
1.038496e+003,5.411338e+001
1.041389e+003,4.964412e+001
1.044281e+003,4.619562e+001
1.047174e+003,4.731062e+001
1.050067e+003,5.516151e+001
1.052960e+003,6.294450e+001
1.055852e+003,6.737238e+001
1.058745e+003,6.836639e+001
1.061638e+003,6.629693e+001
1.064531e+003,6.353431e+001
1.067423e+003,6.478599e+001
1.070316e+003,6.929359e+001
1.073209e+003,7.166651e+001
1.076102e+003,7.181033e+001
1.078994e+003,7.054448e+001
1.081887e+003,6.829525e+001
1.084780e+003,6.577515e+001
1.087673e+003,6.329881e+001
1.090565e+003,6.130087e+001
1.093458e+003,5.995345e+001
1.096351e+003,5.931665e+001
1.099244e+003,5.866100e+001
1.102136e+003,5.724235e+001
1.105029e+003,5.490759e+001
1.107922e+003,5.371548e+001
1.110815e+003,5.756808e+001
1.113707e+003,6.407826e+001
1.116600e+003,6.911105e+001
1.119493e+003,7.136019e+001
1.122385e+003,7.098376e+001
1.125278e+003,6.921397e+001
1.128171e+003,6.669855e+001
1.131064e+003,6.370375e+001
1.133957e+003,6.015107e+001
1.136849e+003,5.606683e+001
1.139742e+003,5.148135e+001
1.142635e+003,4.638096e+001
1.145527e+003,4.099459e+001
1.148420e+003,3.569783e+001
1.151313e+003,3.111116e+001
1.154206e+003,2.763550e+001
1.157099e+003,2.538680e+001
1.159991e+003,2.436772e+001
1.162884e+003,2.430958e+001
1.165777e+003,2.487173e+001
1.168669e+003,2.562675e+001
1.171562e+003,2.663613e+001
1.174455e+003,2.763679e+001
1.177348e+003,2.873910e+001
1.180240e+003,3.014584e+001
1.183133e+003,3.133422e+001
1.186026e+003,3.223147e+001
1.188919e+003,3.514475e+001
1.191811e+003,4.065258e+001
1.194704e+003,4.842285e+001
1.197597e+003,5.727872e+001
1.200490e+003,6.448954e+001
1.203382e+003,6.824459e+001
1.206275e+003,7.016309e+001
1.209168e+003,7.109203e+001
1.212061e+003,7.141196e+001
1.214953e+003,7.112743e+001
1.217846e+003,7.034012e+001
1.220739e+003,6.890661e+001
1.223632e+003,6.673210e+001
1.226524e+003,6.307935e+001
1.229417e+003,5.731034e+001
1.232310e+003,4.965401e+001
1.235203e+003,4.218470e+001
1.238095e+003,3.894103e+001
1.240988e+003,4.102020e+001
1.243881e+003,4.566866e+001
1.246774e+003,5.487245e+001
1.249666e+003,6.564376e+001
1.252559e+003,7.196606e+001
1.255452e+003,7.484674e+001
1.258345e+003,7.648405e+001
1.261237e+003,7.763249e+001
1.264130e+003,7.841951e+001
1.267023e+003,7.878993e+001
1.269916e+003,7.862516e+001
1.272808e+003,7.801600e+001
1.275701e+003,7.710530e+001
1.278594e+003,7.609925e+001
1.281487e+003,7.479911e+001
1.284379e+003,7.290752e+001
1.287272e+003,6.918916e+001
1.290165e+003,6.164440e+001
1.293057e+003,5.583961e+001
1.295950e+003,6.043833e+001
1.298843e+003,6.837370e+001
1.301736e+003,7.427332e+001
1.304629e+003,7.724971e+001
1.307521e+003,7.979526e+001
1.310414e+003,8.187661e+001
1.313307e+003,8.321768e+001
1.316200e+003,8.404397e+001
1.319092e+003,8.443169e+001
1.321985e+003,8.443110e+001
1.324878e+003,8.455013e+001
1.327771e+003,8.525713e+001
1.330663e+003,8.616353e+001
1.333556e+003,8.672784e+001
1.336449e+003,8.665025e+001
1.339342e+003,8.602627e+001
1.342234e+003,8.459016e+001
1.345127e+003,8.248132e+001
1.348020e+003,7.971651e+001
1.350912e+003,7.620826e+001
1.353805e+003,7.303105e+001
1.356698e+003,7.041243e+001
1.359591e+003,6.639727e+001
1.362484e+003,6.192252e+001
1.365376e+003,5.991387e+001
1.368269e+003,6.245759e+001
1.371162e+003,6.718546e+001
1.374054e+003,6.972929e+001
1.376947e+003,7.370326e+001
1.379840e+003,7.979697e+001
1.382733e+003,8.360014e+001
1.385625e+003,8.437582e+001
1.388518e+003,8.301672e+001
1.391411e+003,8.051994e+001
1.394304e+003,7.756624e+001
1.397196e+003,7.576426e+001
1.400089e+003,7.876126e+001
1.402982e+003,8.296142e+001
1.405875e+003,8.546439e+001
1.408767e+003,8.480148e+001
1.411660e+003,8.089846e+001
1.414553e+003,7.648207e+001
1.417446e+003,7.501521e+001
1.420338e+003,7.536347e+001
1.423231e+003,8.094727e+001
1.426124e+003,8.590678e+001
1.429017e+003,8.789967e+001
1.431909e+003,8.809351e+001
1.434802e+003,8.710596e+001
1.437695e+003,8.693475e+001
1.440588e+003,8.778516e+001
1.443480e+003,8.840408e+001
1.446373e+003,8.812986e+001
1.449266e+003,8.751981e+001
1.452159e+003,8.638845e+001
1.455051e+003,8.496866e+001
1.457944e+003,8.217061e+001
1.460837e+003,8.127115e+001
1.463730e+003,7.973841e+001
1.466622e+003,7.984460e+001
1.469515e+003,7.600983e+001
1.472408e+003,7.903387e+001
1.475301e+003,8.315463e+001
1.478193e+003,8.403497e+001
1.481086e+003,8.905650e+001
1.483979e+003,9.278275e+001
1.486872e+003,9.452230e+001
1.489764e+003,9.541201e+001
1.492657e+003,9.592526e+001
1.495550e+003,9.624924e+001
1.498443e+003,9.646017e+001
1.501335e+003,9.650621e+001
1.504228e+003,9.658670e+001
1.507121e+003,9.718166e+001
1.510014e+003,9.683829e+001
1.512906e+003,9.680368e+001
1.515799e+003,9.702345e+001
1.518692e+003,9.694277e+001
1.521584e+003,9.713395e+001
1.524477e+003,9.711958e+001
1.527370e+003,9.704742e+001
1.530263e+003,9.708833e+001
1.533156e+003,9.702623e+001
1.536048e+003,9.705729e+001
1.538941e+003,9.710863e+001
1.541834e+003,9.724728e+001
1.544726e+003,9.714664e+001
1.547619e+003,9.696995e+001
1.550512e+003,9.704165e+001
1.553405e+003,9.698700e+001
1.556297e+003,9.702966e+001
1.559190e+003,9.781510e+001
1.562083e+003,9.695157e+001
1.564976e+003,9.695876e+001
1.567869e+003,9.690691e+001
1.570761e+003,9.688108e+001
1.573654e+003,9.681146e+001
1.576547e+003,9.690688e+001
1.579439e+003,9.667806e+001
1.582332e+003,9.657224e+001
1.585225e+003,9.652387e+001
1.588118e+003,9.652286e+001
1.591010e+003,9.642512e+001
1.593903e+003,9.639256e+001
1.596796e+003,9.621438e+001
1.599689e+003,9.610300e+001
1.602581e+003,9.600313e+001
1.605474e+003,9.583687e+001
1.608367e+003,9.573289e+001
1.611260e+003,9.543600e+001
1.614152e+003,9.534154e+001
1.617045e+003,9.537244e+001
1.619938e+003,9.492787e+001
1.622831e+003,9.489339e+001
1.625723e+003,9.450120e+001
1.628616e+003,9.424319e+001
1.631509e+003,9.395400e+001
1.634402e+003,9.386817e+001
1.637294e+003,9.378357e+001
1.640187e+003,9.352242e+001
1.643080e+003,9.339542e+001
1.645973e+003,9.331621e+001
1.648865e+003,9.301694e+001
1.651758e+003,9.269025e+001
1.654651e+003,9.241577e+001
1.657544e+003,9.177486e+001
1.660436e+003,9.120642e+001
1.663329e+003,9.056313e+001
1.666222e+003,8.968436e+001
1.669115e+003,8.873737e+001
1.672007e+003,8.740290e+001
1.674900e+003,8.588678e+001
1.677793e+003,8.374104e+001
1.680686e+003,8.114861e+001
1.683578e+003,7.884847e+001
1.686471e+003,7.643379e+001
1.689364e+003,7.456815e+001
1.692257e+003,7.278038e+001
1.695149e+003,7.084542e+001
1.698042e+003,6.801765e+001
1.700935e+003,6.453876e+001
1.703828e+003,6.097700e+001
1.706720e+003,5.540302e+001
1.709613e+003,4.844259e+001
1.712506e+003,3.893821e+001
1.715399e+003,2.734362e+001
1.718291e+003,1.714655e+001
1.721184e+003,1.485169e+001
1.724077e+003,2.062825e+001
1.726969e+003,3.036289e+001
1.729862e+003,3.783875e+001
1.732755e+003,4.277132e+001
1.735648e+003,5.087443e+001
1.738541e+003,5.744808e+001
1.741433e+003,6.672312e+001
1.744326e+003,7.567844e+001
1.747219e+003,8.259222e+001
1.750111e+003,8.740751e+001
1.753004e+003,9.042526e+001
1.755897e+003,9.197913e+001
1.758790e+003,9.292288e+001
1.761682e+003,9.370255e+001
1.764575e+003,9.404138e+001
1.767468e+003,9.444411e+001
1.770361e+003,9.479524e+001
1.773253e+003,9.523123e+001
1.776146e+003,9.550278e+001
1.779039e+003,9.578404e+001
1.781932e+003,9.606606e+001
1.784824e+003,9.643358e+001
1.787717e+003,9.660237e+001
1.790610e+003,9.685509e+001
1.793503e+003,9.715595e+001
1.796395e+003,9.719169e+001
1.799288e+003,9.749245e+001
1.802181e+003,9.764600e+001
1.805074e+003,9.768881e+001
1.807966e+003,9.783669e+001
1.810859e+003,9.796314e+001
1.813752e+003,9.805031e+001
1.816645e+003,9.823783e+001
1.819537e+003,9.822183e+001
1.822430e+003,9.822866e+001
1.825323e+003,9.838359e+001
1.828216e+003,9.838060e+001
1.831108e+003,9.845304e+001
1.834001e+003,9.840862e+001
1.836894e+003,9.836830e+001
1.839787e+003,9.825002e+001
1.842679e+003,9.847137e+001
1.845572e+003,9.836312e+001
1.848465e+003,9.845094e+001
1.851358e+003,9.862376e+001
1.854250e+003,9.861493e+001
1.857143e+003,9.864442e+001
1.860036e+003,9.878403e+001
1.862929e+003,9.873452e+001
1.865821e+003,9.869061e+001
1.868714e+003,9.864365e+001
1.871607e+003,9.866786e+001
1.874500e+003,9.866916e+001
1.877392e+003,9.867630e+001
1.880285e+003,9.875089e+001
1.883178e+003,9.863799e+001
1.886071e+003,9.865443e+001
1.888963e+003,9.881960e+001
1.891856e+003,9.868108e+001
1.894749e+003,9.869703e+001
1.897642e+003,9.870653e+001
1.900534e+003,9.875521e+001
1.903427e+003,9.861841e+001
1.906320e+003,9.874234e+001
1.909213e+003,9.867167e+001
1.912105e+003,9.860890e+001
1.914998e+003,9.874710e+001
1.917891e+003,9.848315e+001
1.920784e+003,9.856509e+001
1.923676e+003,9.876471e+001
1.926569e+003,9.861738e+001
1.929462e+003,9.867281e+001
1.932354e+003,9.879098e+001
1.935247e+003,9.875108e+001
1.938140e+003,9.895610e+001
1.941033e+003,9.875849e+001
1.943926e+003,9.857578e+001
1.946818e+003,9.875519e+001
1.949711e+003,9.875487e+001
1.952604e+003,9.888271e+001
1.955496e+003,9.893626e+001
1.958389e+003,9.886549e+001
1.961282e+003,9.867767e+001
1.964175e+003,9.884367e+001
1.967068e+003,9.875907e+001
1.969960e+003,9.915546e+001
1.972853e+003,9.882599e+001
1.975746e+003,9.887218e+001
1.978638e+003,9.826288e+001
1.981531e+003,9.861200e+001
1.984424e+003,9.882460e+001
1.987317e+003,9.871806e+001
1.990209e+003,9.871729e+001
1.993102e+003,9.871320e+001
1.995995e+003,9.870147e+001
1.998888e+003,9.862783e+001
2.001780e+003,9.853004e+001
2.004673e+003,9.893048e+001
2.007566e+003,9.863408e+001
2.010459e+003,9.878681e+001
2.013351e+003,9.864990e+001
2.016244e+003,9.854360e+001
2.019137e+003,9.872744e+001
2.022030e+003,9.885597e+001
2.024922e+003,9.882015e+001
2.027815e+003,9.856302e+001
2.030708e+003,9.856464e+001
2.033601e+003,9.840871e+001
2.036493e+003,9.857826e+001
2.039386e+003,9.844948e+001
2.042279e+003,9.826637e+001
2.045172e+003,9.856715e+001
2.048064e+003,9.854514e+001
2.050957e+003,9.837946e+001
2.053850e+003,9.871888e+001
2.056743e+003,9.856268e+001
2.059635e+003,9.874901e+001
2.062528e+003,9.867326e+001
2.065421e+003,9.851198e+001
2.068314e+003,9.853779e+001
2.071206e+003,9.832375e+001
2.074099e+003,9.835190e+001
2.076992e+003,9.842432e+001
2.079885e+003,9.833211e+001
2.082777e+003,9.821543e+001
2.085670e+003,9.835683e+001
2.088563e+003,9.845106e+001
2.091456e+003,9.828262e+001
2.094348e+003,9.844170e+001
2.097241e+003,9.829141e+001
2.100134e+003,9.830972e+001
2.103027e+003,9.828820e+001
2.105919e+003,9.839946e+001
2.108812e+003,9.842553e+001
2.111705e+003,9.834198e+001
2.114598e+003,9.832023e+001
2.117490e+003,9.858175e+001
2.120383e+003,9.874052e+001
2.123276e+003,9.867820e+001
2.126168e+003,9.888547e+001
2.129061e+003,9.896329e+001
2.131954e+003,9.907672e+001
2.134847e+003,9.906332e+001
2.137740e+003,9.904285e+001
2.140632e+003,9.887710e+001
2.143525e+003,9.893617e+001
2.146418e+003,9.913103e+001
2.149311e+003,9.881027e+001
2.152203e+003,9.902403e+001
2.155096e+003,9.892928e+001
2.157989e+003,9.950213e+001
2.160882e+003,9.819312e+001
2.163774e+003,9.812939e+001
2.166667e+003,9.844893e+001
2.169560e+003,9.856467e+001
2.172452e+003,9.865097e+001
2.175345e+003,9.879691e+001
2.178238e+003,9.898035e+001
2.181131e+003,9.870712e+001
2.184023e+003,9.882064e+001
2.186916e+003,9.853095e+001
2.189809e+003,9.867395e+001
2.192702e+003,9.875535e+001
2.195594e+003,9.877323e+001
2.198487e+003,9.870142e+001
2.201380e+003,9.853909e+001
2.204273e+003,9.909043e+001
2.207166e+003,9.877106e+001
2.210058e+003,9.859821e+001
2.212951e+003,9.892524e+001
2.215844e+003,9.878899e+001
2.218736e+003,9.883250e+001
2.221629e+003,9.865427e+001
2.224522e+003,9.867059e+001
2.227415e+003,9.880056e+001
2.230307e+003,9.882886e+001
2.233200e+003,9.890482e+001
2.236093e+003,9.858212e+001
2.238986e+003,9.860088e+001
2.241878e+003,9.861778e+001
2.244771e+003,9.883943e+001
2.247664e+003,9.876503e+001
2.250557e+003,9.875842e+001
2.253449e+003,9.874162e+001
2.256342e+003,9.867670e+001
2.259235e+003,9.872867e+001
2.262128e+003,9.869111e+001
2.265020e+003,9.877543e+001
2.267913e+003,9.868596e+001
2.270806e+003,9.863050e+001
2.273699e+003,9.875727e+001
2.276591e+003,9.858334e+001
2.279484e+003,9.864364e+001
2.282377e+003,9.842404e+001
2.285270e+003,9.835155e+001
2.288162e+003,9.850396e+001
2.291055e+003,9.839342e+001
2.293948e+003,9.852378e+001
2.296841e+003,9.839716e+001
2.299733e+003,9.857279e+001
2.302626e+003,9.850009e+001
2.305519e+003,9.850024e+001
2.308412e+003,9.848095e+001
2.311304e+003,9.845135e+001
2.314197e+003,9.841682e+001
2.317090e+003,9.833114e+001
2.319983e+003,9.826718e+001
2.322875e+003,9.807504e+001
2.325768e+003,9.824258e+001
2.328661e+003,9.851775e+001
2.331553e+003,9.834109e+001
2.334446e+003,9.828174e+001
2.337339e+003,9.823638e+001
2.340232e+003,9.837299e+001
2.343125e+003,9.815417e+001
2.346017e+003,9.832330e+001
2.348910e+003,9.845203e+001
2.351803e+003,9.841740e+001
2.354696e+003,9.830350e+001
2.357588e+003,9.843991e+001
2.360481e+003,9.855975e+001
2.363374e+003,9.854521e+001
2.366267e+003,9.866210e+001
2.369159e+003,9.839722e+001
2.372052e+003,9.875826e+001
2.374945e+003,9.861446e+001
2.377837e+003,9.884429e+001
2.380730e+003,9.881198e+001
2.383623e+003,9.890420e+001
2.386516e+003,9.893542e+001
2.389408e+003,9.893295e+001
2.392301e+003,9.887218e+001
2.395194e+003,9.888294e+001
2.398087e+003,9.880806e+001
2.400979e+003,9.889467e+001
2.403872e+003,9.877634e+001
2.406765e+003,9.887843e+001
2.409658e+003,9.866275e+001
2.412551e+003,9.866563e+001
2.415443e+003,9.876150e+001
2.418336e+003,9.871841e+001
2.421229e+003,9.873167e+001
2.424121e+003,9.876680e+001
2.427014e+003,9.887582e+001
2.429907e+003,9.886192e+001
2.432800e+003,9.882195e+001
2.435692e+003,9.888348e+001
2.438585e+003,9.881906e+001
2.441478e+003,9.873444e+001
2.444371e+003,9.883829e+001
2.447263e+003,9.887486e+001
2.450156e+003,9.888140e+001
2.453049e+003,9.889255e+001
2.455942e+003,9.884121e+001
2.458834e+003,9.887000e+001
2.461727e+003,9.890215e+001
2.464620e+003,9.889781e+001
2.467513e+003,9.883919e+001
2.470405e+003,9.879687e+001
2.473298e+003,9.881999e+001
2.476191e+003,9.878912e+001
2.479084e+003,9.886810e+001
2.481976e+003,9.881290e+001
2.484869e+003,9.879085e+001
2.487762e+003,9.881320e+001
2.490655e+003,9.884928e+001
2.493547e+003,9.884325e+001
2.496440e+003,9.883700e+001
2.499333e+003,9.885456e+001
2.502226e+003,9.882433e+001
2.505118e+003,9.891885e+001
2.508011e+003,9.891054e+001
2.510904e+003,9.892029e+001
2.513797e+003,9.884350e+001
2.516689e+003,9.894338e+001
2.519582e+003,9.881980e+001
2.522475e+003,9.875645e+001
2.525368e+003,9.876656e+001
2.528260e+003,9.879204e+001
2.531153e+003,9.867476e+001
2.534046e+003,9.871258e+001
2.536938e+003,9.873560e+001
2.539831e+003,9.866268e+001
2.542724e+003,9.870531e+001
2.545617e+003,9.876320e+001
2.548510e+003,9.881380e+001
2.551402e+003,9.881453e+001
2.554295e+003,9.884445e+001
2.557188e+003,9.877975e+001
2.560081e+003,9.870464e+001
2.562973e+003,9.885093e+001
2.565866e+003,9.872585e+001
2.568759e+003,9.871045e+001
2.571652e+003,9.867733e+001
2.574544e+003,9.874056e+001
2.577437e+003,9.859724e+001
2.580330e+003,9.864673e+001
2.583222e+003,9.873035e+001
2.586115e+003,9.871757e+001
2.589008e+003,9.876012e+001
2.591901e+003,9.873072e+001
2.594793e+003,9.869376e+001
2.597686e+003,9.867826e+001
2.600579e+003,9.868326e+001
2.603472e+003,9.865553e+001
2.606365e+003,9.858370e+001
2.609257e+003,9.859084e+001
2.612150e+003,9.860980e+001
2.615043e+003,9.861484e+001
2.617936e+003,9.857087e+001
2.620828e+003,9.859583e+001
2.623721e+003,9.861725e+001
2.626614e+003,9.855288e+001
2.629506e+003,9.857212e+001
2.632399e+003,9.851389e+001
2.635292e+003,9.844534e+001
2.638185e+003,9.846695e+001
2.641077e+003,9.844916e+001
2.643970e+003,9.836823e+001
2.646863e+003,9.841422e+001
2.649756e+003,9.836397e+001
2.652648e+003,9.837820e+001
2.655541e+003,9.839013e+001
2.658434e+003,9.840354e+001
2.661327e+003,9.840243e+001
2.664219e+003,9.844985e+001
2.667112e+003,9.844941e+001
2.670005e+003,9.846920e+001
2.672898e+003,9.845923e+001
2.675790e+003,9.836893e+001
2.678683e+003,9.843495e+001
2.681576e+003,9.843108e+001
2.684469e+003,9.840321e+001
2.687361e+003,9.837073e+001
2.690254e+003,9.842065e+001
2.693147e+003,9.840466e+001
2.696040e+003,9.841136e+001
2.698932e+003,9.841808e+001
2.701825e+003,9.844424e+001
2.704718e+003,9.837285e+001
2.707611e+003,9.830782e+001
2.710503e+003,9.837247e+001
2.713396e+003,9.835440e+001
2.716289e+003,9.835506e+001
2.719182e+003,9.834997e+001
2.722074e+003,9.829453e+001
2.724967e+003,9.830302e+001
2.727860e+003,9.828953e+001
2.730753e+003,9.830731e+001
2.733645e+003,9.831274e+001
2.736538e+003,9.827338e+001
2.739431e+003,9.828436e+001
2.742323e+003,9.828605e+001
2.745216e+003,9.820243e+001
2.748109e+003,9.812093e+001
2.751002e+003,9.818089e+001
2.753895e+003,9.810948e+001
2.756787e+003,9.811294e+001
2.759680e+003,9.811143e+001
2.762573e+003,9.811788e+001
2.765466e+003,9.807732e+001
2.768358e+003,9.797775e+001
2.771251e+003,9.798981e+001
2.774144e+003,9.790765e+001
2.777037e+003,9.793878e+001
2.779929e+003,9.787743e+001
2.782822e+003,9.788035e+001
2.785715e+003,9.784402e+001
2.788607e+003,9.782025e+001
2.791500e+003,9.782661e+001
2.794393e+003,9.774531e+001
2.797286e+003,9.766224e+001
2.800178e+003,9.755879e+001
2.803071e+003,9.743971e+001
2.805964e+003,9.740828e+001
2.808857e+003,9.725916e+001
2.811750e+003,9.709487e+001
2.814642e+003,9.687144e+001
2.817535e+003,9.663535e+001
2.820428e+003,9.655010e+001
2.823321e+003,9.626671e+001
2.826213e+003,9.603101e+001
2.829106e+003,9.580202e+001
2.831999e+003,9.559682e+001
2.834891e+003,9.521777e+001
2.837784e+003,9.470030e+001
2.840677e+003,9.402377e+001
2.843570e+003,9.301830e+001
2.846462e+003,9.178652e+001
2.849355e+003,8.992622e+001
2.852248e+003,8.795033e+001
2.855141e+003,8.569469e+001
2.858033e+003,8.336758e+001
2.860926e+003,8.116535e+001
2.863819e+003,7.982100e+001
2.866712e+003,8.008648e+001
2.869604e+003,8.153913e+001
2.872497e+003,8.379286e+001
2.875390e+003,8.604853e+001
2.878283e+003,8.756197e+001
2.881175e+003,8.833262e+001
2.884068e+003,8.850413e+001
2.886961e+003,8.785607e+001
2.889854e+003,8.639938e+001
2.892746e+003,8.469790e+001
2.895639e+003,8.418142e+001
2.898532e+003,8.478412e+001
2.901425e+003,8.482195e+001
2.904317e+003,8.421121e+001
2.907210e+003,8.320769e+001
2.910103e+003,8.232554e+001
2.912996e+003,8.153716e+001
2.915888e+003,8.069792e+001
2.918781e+003,7.933894e+001
2.921674e+003,7.782959e+001
2.924567e+003,7.658072e+001
2.927459e+003,7.566346e+001
2.930352e+003,7.475343e+001
2.933245e+003,7.333955e+001
2.936137e+003,7.232178e+001
2.939030e+003,7.176500e+001
2.941923e+003,7.119925e+001
2.944816e+003,7.124563e+001
2.947708e+003,7.205861e+001
2.950601e+003,7.378934e+001
2.953494e+003,7.521838e+001
2.956387e+003,7.662691e+001
2.959280e+003,7.892608e+001
2.962172e+003,8.158859e+001
2.965065e+003,8.391142e+001
2.967958e+003,8.607757e+001
2.970851e+003,8.819140e+001
2.973743e+003,9.012722e+001
2.976636e+003,9.174013e+001
2.979529e+003,9.300745e+001
2.982422e+003,9.406956e+001
2.985314e+003,9.481913e+001
2.988207e+003,9.554544e+001
2.991100e+003,9.613139e+001
2.993992e+003,9.652975e+001
2.996885e+003,9.688589e+001
2.999778e+003,9.717421e+001
3.002671e+003,9.743304e+001
3.005563e+003,9.760886e+001
3.008456e+003,9.774450e+001
3.011349e+003,9.794482e+001
3.014242e+003,9.801054e+001
3.017135e+003,9.802476e+001
3.020027e+003,9.809547e+001
3.022920e+003,9.829482e+001
3.025813e+003,9.823595e+001
3.028706e+003,9.834096e+001
3.031598e+003,9.824566e+001
3.034491e+003,9.829581e+001
3.037384e+003,9.841574e+001
3.040276e+003,9.839820e+001
3.043169e+003,9.834697e+001
3.046062e+003,9.843065e+001
3.048955e+003,9.853352e+001
3.051847e+003,9.842066e+001
3.054740e+003,9.844683e+001
3.057633e+003,9.849377e+001
3.060526e+003,9.847645e+001
3.063418e+003,9.847138e+001
3.066311e+003,9.851794e+001
3.069204e+003,9.853189e+001
3.072097e+003,9.852084e+001
3.074990e+003,9.848923e+001
3.077882e+003,9.858551e+001
3.080775e+003,9.861722e+001
3.083668e+003,9.859726e+001
3.086560e+003,9.860332e+001
3.089453e+003,9.857903e+001
3.092346e+003,9.857684e+001
3.095239e+003,9.858719e+001
3.098131e+003,9.860687e+001
3.101024e+003,9.865052e+001
3.103917e+003,9.862601e+001
3.106810e+003,9.855870e+001
3.109702e+003,9.855026e+001
3.112595e+003,9.869097e+001
3.115488e+003,9.865253e+001
3.118381e+003,9.864056e+001
3.121273e+003,9.863501e+001
3.124166e+003,9.858173e+001
3.127059e+003,9.862967e+001
3.129952e+003,9.862616e+001
3.132844e+003,9.857811e+001
3.135737e+003,9.857990e+001
3.138630e+003,9.861051e+001
3.141522e+003,9.864108e+001
3.144415e+003,9.861454e+001
3.147308e+003,9.868658e+001
3.150201e+003,9.868859e+001
3.153094e+003,9.854809e+001
3.155986e+003,9.860406e+001
3.158879e+003,9.873699e+001
3.161772e+003,9.877275e+001
3.164665e+003,9.864633e+001
3.167557e+003,9.870802e+001
3.170450e+003,9.867726e+001
3.173343e+003,9.877547e+001
3.176236e+003,9.858289e+001
3.179128e+003,9.864220e+001
3.182021e+003,9.864622e+001
3.184914e+003,9.871228e+001
3.187806e+003,9.867528e+001
3.190699e+003,9.866801e+001
3.193592e+003,9.860547e+001
3.196485e+003,9.869411e+001
3.199377e+003,9.871302e+001
3.202270e+003,9.868257e+001
3.205163e+003,9.864654e+001
3.208056e+003,9.869193e+001
3.210948e+003,9.868312e+001
3.213841e+003,9.869754e+001
3.216734e+003,9.865072e+001
3.219627e+003,9.877376e+001
3.222520e+003,9.861536e+001
3.225412e+003,9.870353e+001
3.228305e+003,9.869718e+001
3.231198e+003,9.865073e+001
3.234091e+003,9.870754e+001
3.236983e+003,9.876829e+001
3.239876e+003,9.866318e+001
3.242769e+003,9.859253e+001
3.245661e+003,9.865816e+001
3.248554e+003,9.882942e+001
3.251447e+003,9.862995e+001
3.254340e+003,9.861359e+001
3.257232e+003,9.860413e+001
3.260125e+003,9.875852e+001
3.263018e+003,9.860634e+001
3.265911e+003,9.858794e+001
3.268803e+003,9.866515e+001
3.271696e+003,9.867352e+001
3.274589e+003,9.873209e+001
3.277482e+003,9.850294e+001
3.280375e+003,9.860673e+001
3.283267e+003,9.855857e+001
3.286160e+003,9.865458e+001
3.289053e+003,9.851965e+001
3.291945e+003,9.861903e+001
3.294838e+003,9.867930e+001
3.297731e+003,9.872600e+001
3.300624e+003,9.859792e+001
3.303516e+003,9.861573e+001
3.306409e+003,9.881783e+001
3.309302e+003,9.866550e+001
3.312195e+003,9.872490e+001
3.315087e+003,9.862106e+001
3.317980e+003,9.860690e+001
3.320873e+003,9.871684e+001
3.323766e+003,9.867768e+001
3.326658e+003,9.865163e+001
3.329551e+003,9.872470e+001
3.332444e+003,9.861898e+001
3.335337e+003,9.867027e+001
3.338229e+003,9.863406e+001
3.341122e+003,9.855080e+001
3.344015e+003,9.862185e+001
3.346907e+003,9.870576e+001
3.349800e+003,9.866198e+001
3.352693e+003,9.865364e+001
3.355586e+003,9.859945e+001
3.358479e+003,9.869279e+001
3.361371e+003,9.865855e+001
3.364264e+003,9.867793e+001
3.367157e+003,9.875846e+001
3.370050e+003,9.868422e+001
3.372942e+003,9.875072e+001
3.375835e+003,9.873073e+001
3.378728e+003,9.884438e+001
3.381621e+003,9.874576e+001
3.384513e+003,9.873419e+001
3.387406e+003,9.873637e+001
3.390299e+003,9.864616e+001
3.393191e+003,9.867193e+001
3.396084e+003,9.868375e+001
3.398977e+003,9.868356e+001
3.401870e+003,9.865805e+001
3.404762e+003,9.866334e+001
3.407655e+003,9.874265e+001
3.410548e+003,9.876558e+001
3.413441e+003,9.855577e+001
3.416333e+003,9.846512e+001
3.419226e+003,9.855122e+001
3.422119e+003,9.842526e+001
3.425012e+003,9.833967e+001
3.427905e+003,9.818891e+001
3.430797e+003,9.804395e+001
3.433690e+003,9.788493e+001
3.436583e+003,9.771513e+001
3.439475e+003,9.783148e+001
3.442368e+003,9.801005e+001
3.445261e+003,9.801466e+001
3.448154e+003,9.813855e+001
3.451046e+003,9.822702e+001
3.453939e+003,9.829507e+001
3.456832e+003,9.839229e+001
3.459725e+003,9.839392e+001
3.462617e+003,9.852431e+001
3.465510e+003,9.862240e+001
3.468403e+003,9.861637e+001
3.471296e+003,9.858025e+001
3.474188e+003,9.872883e+001
3.477081e+003,9.871735e+001
3.479974e+003,9.870805e+001
3.482867e+003,9.882448e+001
3.485760e+003,9.870551e+001
3.488652e+003,9.883195e+001
3.491545e+003,9.890765e+001
3.494438e+003,9.864136e+001
3.497330e+003,9.873907e+001
3.500223e+003,9.884817e+001
3.503116e+003,9.885113e+001
3.506009e+003,9.887901e+001
3.508901e+003,9.881181e+001
3.511794e+003,9.878948e+001
3.514687e+003,9.886044e+001
3.517580e+003,9.886742e+001
3.520472e+003,9.886078e+001
3.523365e+003,9.892889e+001
3.526258e+003,9.886887e+001
3.529151e+003,9.883182e+001
3.532043e+003,9.887409e+001
3.534936e+003,9.884217e+001
3.537829e+003,9.880518e+001
3.540722e+003,9.876415e+001
3.543614e+003,9.881628e+001
3.546507e+003,9.879762e+001
3.549400e+003,9.891888e+001
3.552292e+003,9.885007e+001
3.555185e+003,9.891223e+001
3.558078e+003,9.899848e+001
3.560971e+003,9.893088e+001
3.563864e+003,9.890304e+001
3.566756e+003,9.912907e+001
3.569649e+003,9.904699e+001
3.572542e+003,9.906496e+001
3.575435e+003,9.911333e+001
3.578327e+003,9.909288e+001
3.581220e+003,9.913283e+001
3.584113e+003,9.914864e+001
3.587006e+003,9.933724e+001
3.589898e+003,9.909345e+001
3.592791e+003,9.901652e+001
3.595684e+003,9.922120e+001
3.598576e+003,9.916416e+001
3.601469e+003,9.911211e+001
3.604362e+003,9.905744e+001
3.607255e+003,9.898347e+001
3.610147e+003,9.911511e+001
3.613040e+003,9.927198e+001
3.615933e+003,9.904930e+001
3.618826e+003,9.923966e+001
3.621719e+003,9.921634e+001
3.624611e+003,9.934189e+001
3.627504e+003,9.934164e+001
3.630397e+003,9.924631e+001
3.633290e+003,9.915574e+001
3.636182e+003,9.910522e+001
3.639075e+003,9.924153e+001
3.641968e+003,9.927033e+001
3.644860e+003,9.931180e+001
3.647753e+003,9.937923e+001
3.650646e+003,9.954285e+001
3.653539e+003,9.907113e+001
3.656431e+003,9.954630e+001
3.659324e+003,9.929001e+001
3.662217e+003,9.933503e+001
3.665110e+003,9.937268e+001
3.668002e+003,9.917890e+001
3.670895e+003,9.936525e+001
3.673788e+003,9.938554e+001
3.676681e+003,9.941710e+001
3.679573e+003,9.943298e+001
3.682466e+003,9.936171e+001
3.685359e+003,9.937828e+001
3.688252e+003,9.953958e+001
3.691145e+003,9.982445e+001
3.694037e+003,9.948045e+001
3.696930e+003,9.942020e+001
3.699823e+003,9.939857e+001
3.702715e+003,9.947366e+001
3.705608e+003,9.934394e+001
3.708501e+003,9.951068e+001
3.711394e+003,9.961588e+001
3.714286e+003,9.937724e+001
3.717179e+003,9.962971e+001
3.720072e+003,9.942625e+001
3.722965e+003,9.935047e+001
3.725857e+003,9.940801e+001
3.728750e+003,9.943614e+001
3.731643e+003,9.982884e+001
3.734536e+003,9.955704e+001
3.737428e+003,9.949828e+001
3.740321e+003,9.949622e+001
3.743214e+003,9.973367e+001
3.746107e+003,9.941424e+001
3.748999e+003,9.964073e+001
3.751892e+003,9.989760e+001
3.754785e+003,9.940329e+001
3.757677e+003,9.952148e+001
3.760570e+003,9.945170e+001
3.763463e+003,9.935339e+001
3.766356e+003,9.944852e+001
3.769249e+003,9.953934e+001
3.772141e+003,9.942247e+001
3.775034e+003,9.947927e+001
3.777927e+003,9.947053e+001
3.780820e+003,9.949692e+001
3.783712e+003,9.950481e+001
3.786605e+003,9.947049e+001
3.789498e+003,9.948637e+001
3.792391e+003,9.940402e+001
3.795283e+003,9.948165e+001
3.798176e+003,9.937225e+001
3.801069e+003,9.933401e+001
3.803961e+003,9.936781e+001
3.806854e+003,9.977317e+001
3.809747e+003,9.938541e+001
3.812640e+003,9.948961e+001
3.815532e+003,9.978651e+001
3.818425e+003,9.949931e+001
3.821318e+003,9.978036e+001
3.824211e+003,9.934416e+001
3.827104e+003,9.966370e+001
3.829996e+003,9.943343e+001
3.832889e+003,9.943266e+001
3.835782e+003,9.942123e+001
3.838675e+003,9.966642e+001
3.841567e+003,9.947400e+001
3.844460e+003,9.952658e+001
3.847353e+003,9.943582e+001
3.850245e+003,9.944324e+001
3.853138e+003,9.984265e+001
3.856031e+003,9.946440e+001
3.858924e+003,9.932972e+001
3.861816e+003,9.943437e+001
3.864709e+003,9.980188e+001
3.867602e+003,9.955287e+001
3.870495e+003,9.970831e+001
3.873387e+003,9.939201e+001
3.876280e+003,9.938819e+001
3.879173e+003,9.945489e+001
3.882066e+003,9.951095e+001
3.884958e+003,9.938393e+001
3.887851e+003,9.938706e+001
3.890744e+003,9.951083e+001
3.893637e+003,9.947141e+001
3.896529e+003,9.927953e+001
3.899422e+003,9.950143e+001
3.902315e+003,9.929353e+001
3.905208e+003,9.962228e+001
3.908100e+003,9.936317e+001
3.910993e+003,9.954378e+001
3.913886e+003,9.941735e+001
3.916779e+003,9.947955e+001
3.919671e+003,9.952462e+001
3.922564e+003,9.942740e+001
3.925457e+003,9.943591e+001
3.928350e+003,9.945422e+001
3.931242e+003,9.943939e+001
3.934135e+003,9.939070e+001
3.937028e+003,9.933225e+001
3.939921e+003,9.961796e+001
3.942813e+003,9.958172e+001
3.945706e+003,9.937673e+001
3.948599e+003,9.949549e+001
3.951492e+003,9.952819e+001
3.954384e+003,9.947383e+001
3.957277e+003,9.941210e+001
3.960170e+003,9.935709e+001
3.963063e+003,9.941554e+001
3.965955e+003,9.925197e+001
3.968848e+003,9.948111e+001
3.971741e+003,9.935249e+001
3.974634e+003,9.932013e+001
3.977526e+003,9.943030e+001
3.980419e+003,9.932658e+001
3.983312e+003,9.937833e+001
3.986205e+003,9.958702e+001
3.989097e+003,9.945924e+001
3.991990e+003,9.936057e+001
3.994883e+003,9.935641e+001
3.997776e+003,9.931416e+001
4.000668e+003,0.000000e+000