File: FTIR Data (PCL)/All Data/PCL_NaOH_PDA_1_2.CSV
3.991989e+002,0.000000e+000
4.020916e+002,0.000000e+000
4.049844e+002,0.000000e+000
4.078771e+002,0.000000e+000
4.107699e+002,0.000000e+000
4.136626e+002,0.000000e+000
4.165554e+002,0.000000e+000
4.194481e+002,0.000000e+000
4.223409e+002,0.000000e+000
4.252336e+002,0.000000e+000
4.281263e+002,0.000000e+000
4.310191e+002,0.000000e+000
4.339118e+002,0.000000e+000
4.368046e+002,0.000000e+000
4.396973e+002,0.000000e+000
4.425901e+002,0.000000e+000
4.454828e+002,0.000000e+000
4.483756e+002,0.000000e+000
4.512683e+002,0.000000e+000
4.541611e+002,0.000000e+000
4.570538e+002,0.000000e+000
4.599466e+002,0.000000e+000
4.628393e+002,0.000000e+000
4.657321e+002,0.000000e+000
4.686248e+002,0.000000e+000
4.715175e+002,0.000000e+000
4.744103e+002,0.000000e+000
4.773030e+002,0.000000e+000
4.801958e+002,0.000000e+000
4.830885e+002,0.000000e+000
4.859813e+002,0.000000e+000
4.888740e+002,0.000000e+000
4.917668e+002,0.000000e+000
4.946595e+002,0.000000e+000
4.975523e+002,0.000000e+000
5.004450e+002,0.000000e+000
5.033378e+002,0.000000e+000
5.062305e+002,0.000000e+000
5.091233e+002,0.000000e+000
5.120160e+002,0.000000e+000
5.149088e+002,0.000000e+000
5.178015e+002,0.000000e+000
5.206942e+002,0.000000e+000
5.235870e+002,0.000000e+000
5.264797e+002,0.000000e+000
5.293725e+002,0.000000e+000
5.322652e+002,0.000000e+000
5.351580e+002,0.000000e+000
5.380507e+002,0.000000e+000
5.409435e+002,0.000000e+000
5.438362e+002,0.000000e+000
5.467289e+002,0.000000e+000
5.496217e+002,8.403262e+001
5.525145e+002,8.777873e+001
5.554072e+002,8.873001e+001
5.582999e+002,8.353895e+001
5.611927e+002,8.747266e+001
5.640854e+002,8.217271e+001
5.669782e+002,8.021786e+001
5.698709e+002,8.120496e+001
5.727637e+002,8.264277e+001
5.756564e+002,7.753748e+001
5.785492e+002,7.997080e+001
5.814419e+002,7.676835e+001
5.843347e+002,7.898041e+001
5.872274e+002,7.770180e+001
5.901202e+002,8.050083e+001
5.930129e+002,8.154521e+001
5.959056e+002,8.302139e+001
5.987984e+002,8.332882e+001
6.016912e+002,8.326575e+001
6.045839e+002,8.416256e+001
6.074766e+002,8.464461e+001
6.103694e+002,8.439645e+001
6.132621e+002,8.522635e+001
6.161548e+002,8.478621e+001
6.190476e+002,8.486426e+001
6.219404e+002,8.558556e+001
6.248331e+002,8.490498e+001
6.277258e+002,8.520847e+001
6.306186e+002,8.493330e+001
6.335114e+002,8.545605e+001
6.364041e+002,8.566739e+001
6.392968e+002,8.527809e+001
6.421896e+002,8.513464e+001
6.450823e+002,8.531691e+001
6.479751e+002,8.543945e+001
6.508679e+002,8.524591e+001
6.537606e+002,8.552859e+001
6.566533e+002,8.548728e+001
6.595461e+002,8.531401e+001
6.624388e+002,8.542436e+001
6.653315e+002,8.538764e+001
6.682243e+002,8.564711e+001
6.711171e+002,8.528520e+001
6.740098e+002,8.496307e+001
6.769025e+002,8.477125e+001
6.797953e+002,8.455174e+001
6.826880e+002,8.411170e+001
6.855808e+002,8.356011e+001
6.884735e+002,8.294300e+001
6.913663e+002,8.210658e+001
6.942590e+002,8.107844e+001
6.971518e+002,7.982977e+001
7.000445e+002,7.836053e+001
7.029373e+002,7.651396e+001
7.058300e+002,7.438165e+001
7.087228e+002,7.304433e+001
7.116155e+002,7.364761e+001
7.145082e+002,7.526013e+001
7.174010e+002,7.590967e+001
7.202938e+002,7.495448e+001
7.231865e+002,7.041328e+001
7.260792e+002,6.306043e+001
7.289720e+002,6.035029e+001
7.318647e+002,5.820726e+001
7.347575e+002,6.438534e+001
7.376502e+002,7.127188e+001
7.405430e+002,7.683866e+001
7.434357e+002,8.082012e+001
7.463285e+002,8.331863e+001
7.492212e+002,8.481969e+001
7.521140e+002,8.582949e+001
7.550067e+002,8.652225e+001
7.578995e+002,8.704705e+001
7.607922e+002,8.708939e+001
7.636849e+002,8.667089e+001
7.665777e+002,8.588621e+001
7.694705e+002,8.496835e+001
7.723632e+002,8.428163e+001
7.752559e+002,8.470787e+001
7.781487e+002,8.560923e+001
7.810414e+002,8.639092e+001
7.839341e+002,8.680176e+001
7.868269e+002,8.697224e+001
7.897197e+002,8.708667e+001
7.926124e+002,8.714716e+001
7.955051e+002,8.711782e+001
7.983979e+002,8.705150e+001
8.012906e+002,8.692707e+001
8.041834e+002,8.699152e+001
8.070761e+002,8.684536e+001
8.099689e+002,8.688231e+001
8.128616e+002,8.680846e+001
8.157544e+002,8.678796e+001
8.186472e+002,8.678040e+001
8.215399e+002,8.662375e+001
8.244326e+002,8.637127e+001
8.273254e+002,8.604593e+001
8.302181e+002,8.542673e+001
8.331108e+002,8.409780e+001
8.360036e+002,8.194807e+001
8.388964e+002,7.887347e+001
8.417891e+002,7.981505e+001
8.446818e+002,8.356361e+001
8.475746e+002,8.488538e+001
8.504673e+002,8.525981e+001
8.533601e+002,8.515327e+001
8.562528e+002,8.502743e+001
8.591456e+002,8.503799e+001
8.620383e+002,8.483620e+001
8.649311e+002,8.475163e+001
8.678238e+002,8.452312e+001
8.707166e+002,8.448714e+001
8.736093e+002,8.447017e+001
8.765021e+002,8.434792e+001
8.793948e+002,8.427469e+001
8.822875e+002,8.415285e+001
8.851803e+002,8.403117e+001
8.880731e+002,8.393291e+001
8.909658e+002,8.383486e+001
8.938585e+002,8.380210e+001
8.967513e+002,8.369431e+001
8.996440e+002,8.344254e+001
9.025368e+002,8.317641e+001
9.054295e+002,8.270432e+001
9.083223e+002,8.228737e+001
9.112150e+002,8.163650e+001
9.141078e+002,8.101669e+001
9.170005e+002,8.030154e+001
9.198932e+002,7.925719e+001
9.227860e+002,7.789277e+001
9.256788e+002,7.581200e+001
9.285715e+002,7.307362e+001
9.314642e+002,6.978982e+001
9.343570e+002,6.876917e+001
9.372498e+002,7.190546e+001
9.401425e+002,7.464729e+001
9.430352e+002,7.490955e+001
9.459280e+002,7.366230e+001
9.488207e+002,7.130571e+001
9.517134e+002,6.789091e+001
9.546062e+002,6.409435e+001
9.574990e+002,6.006387e+001
9.603917e+002,5.763345e+001
9.632844e+002,6.073454e+001
9.661772e+002,6.745866e+001
9.690699e+002,7.151518e+001
9.719627e+002,7.370412e+001
9.748554e+002,7.536968e+001
9.777482e+002,7.696095e+001
9.806409e+002,7.796092e+001
9.835337e+002,7.822832e+001
9.864265e+002,7.808982e+001
9.893192e+002,7.790956e+001
9.922119e+002,7.769572e+001
9.951047e+002,7.771894e+001
9.979974e+002,7.772111e+001
1.000890e+003,7.745236e+001
1.003783e+003,7.712241e+001
1.006676e+003,7.661704e+001
1.009568e+003,7.610638e+001
1.012461e+003,7.536505e+001
1.015354e+003,7.460385e+001
1.018247e+003,7.361759e+001
1.021139e+003,7.245449e+001
1.024032e+003,7.109174e+001
1.026925e+003,6.936819e+001
1.029818e+003,6.728822e+001
1.032710e+003,6.482314e+001
1.035603e+003,6.172695e+001
1.038496e+003,5.817971e+001
1.041389e+003,5.431086e+001
1.044281e+003,5.131292e+001
1.047174e+003,5.209218e+001
1.050067e+003,5.837907e+001
1.052960e+003,6.512305e+001
1.055852e+003,6.917021e+001
1.058745e+003,7.027551e+001
1.061638e+003,6.847195e+001
1.064531e+003,6.621188e+001
1.067423e+003,6.730444e+001
1.070316e+003,7.104120e+001
1.073209e+003,7.317764e+001
1.076102e+003,7.321657e+001
1.078994e+003,7.203237e+001
1.081887e+003,6.996663e+001
1.084780e+003,6.767735e+001
1.087673e+003,6.537132e+001
1.090565e+003,6.348218e+001
1.093458e+003,6.221738e+001
1.096351e+003,6.167365e+001
1.099244e+003,6.107800e+001
1.102136e+003,5.981623e+001
1.105029e+003,5.767875e+001
1.107922e+003,5.667695e+001
1.110815e+003,6.015413e+001
1.113707e+003,6.603918e+001
1.116600e+003,7.052214e+001
1.119493e+003,7.247897e+001
1.122385e+003,7.210593e+001
1.125278e+003,7.045187e+001
1.128171e+003,6.822523e+001
1.131064e+003,6.549902e+001
1.133957e+003,6.236575e+001
1.136849e+003,5.871257e+001
1.139742e+003,5.459405e+001
1.142635e+003,5.001972e+001
1.145527e+003,4.517746e+001
1.148420e+003,4.033801e+001
1.151313e+003,3.605338e+001
1.154206e+003,3.271494e+001
1.157099e+003,3.045371e+001
1.159991e+003,2.935778e+001
1.162884e+003,2.921766e+001
1.165777e+003,2.959910e+001
1.168669e+003,3.036716e+001
1.171562e+003,3.133022e+001
1.174455e+003,3.240993e+001
1.177348e+003,3.359585e+001
1.180240e+003,3.502980e+001
1.183133e+003,3.618938e+001
1.186026e+003,3.728621e+001
1.188919e+003,4.019599e+001
1.191811e+003,4.538705e+001
1.194704e+003,5.242739e+001
1.197597e+003,6.000039e+001
1.200490e+003,6.597223e+001
1.203382e+003,6.910528e+001
1.206275e+003,7.074985e+001
1.209168e+003,7.160038e+001
1.212061e+003,7.188640e+001
1.214953e+003,7.166142e+001
1.217846e+003,7.104958e+001
1.220739e+003,6.991273e+001
1.223632e+003,6.797971e+001
1.226524e+003,6.475898e+001
1.229417e+003,5.961597e+001
1.232310e+003,5.267261e+001
1.235203e+003,4.598173e+001
1.238095e+003,4.335334e+001
1.240988e+003,4.547463e+001
1.243881e+003,5.002810e+001
1.246774e+003,5.835980e+001
1.249666e+003,6.769808e+001
1.252559e+003,7.294719e+001
1.255452e+003,7.526913e+001
1.258345e+003,7.656931e+001
1.261237e+003,7.756554e+001
1.264130e+003,7.823623e+001
1.267023e+003,7.849784e+001
1.269916e+003,7.828625e+001
1.272808e+003,7.774656e+001
1.275701e+003,7.697464e+001
1.278594e+003,7.606123e+001
1.281487e+003,7.492481e+001
1.284379e+003,7.334799e+001
1.287272e+003,7.024515e+001
1.290165e+003,6.389130e+001
1.293057e+003,5.905940e+001
1.295950e+003,6.297160e+001
1.298843e+003,6.961123e+001
1.301736e+003,7.460382e+001
1.304629e+003,7.729114e+001
1.307521e+003,7.955003e+001
1.310414e+003,8.141802e+001
1.313307e+003,8.261951e+001
1.316200e+003,8.337028e+001
1.319092e+003,8.368543e+001
1.321985e+003,8.370102e+001
1.324878e+003,8.383406e+001
1.327771e+003,8.448265e+001
1.330663e+003,8.527204e+001
1.333556e+003,8.579796e+001
1.336449e+003,8.576036e+001
1.339342e+003,8.516588e+001
1.342234e+003,8.391806e+001
1.345127e+003,8.200381e+001
1.348020e+003,7.942027e+001
1.350912e+003,7.635311e+001
1.353805e+003,7.361811e+001
1.356698e+003,7.127309e+001
1.359591e+003,6.786251e+001
1.362484e+003,6.418446e+001
1.365376e+003,6.275037e+001
1.368269e+003,6.525225e+001
1.371162e+003,6.944827e+001
1.374054e+003,7.178715e+001
1.376947e+003,7.510123e+001
1.379840e+003,8.022740e+001
1.382733e+003,8.337608e+001
1.385625e+003,8.393196e+001
1.388518e+003,8.268179e+001
1.391411e+003,8.040221e+001
1.394304e+003,7.786021e+001
1.397196e+003,7.656323e+001
1.400089e+003,7.927261e+001
1.402982e+003,8.275162e+001
1.405875e+003,8.476918e+001
1.408767e+003,8.381491e+001
1.411660e+003,8.004446e+001
1.414553e+003,7.612806e+001
1.417446e+003,7.497383e+001
1.420338e+003,7.568930e+001
1.423231e+003,8.058452e+001
1.426124e+003,8.499352e+001
1.429017e+003,8.685154e+001
1.431909e+003,8.698972e+001
1.434802e+003,8.609908e+001
1.437695e+003,8.587608e+001
1.440588e+003,8.657051e+001
1.443480e+003,8.698862e+001
1.446373e+003,8.668471e+001
1.449266e+003,8.607923e+001
1.452159e+003,8.502954e+001
1.455051e+003,8.375125e+001
1.457944e+003,8.123833e+001
1.460837e+003,8.021358e+001
1.463730e+003,7.888721e+001
1.466622e+003,7.909469e+001
1.469515e+003,7.588055e+001
1.472408e+003,7.810693e+001
1.475301e+003,8.161314e+001
1.478193e+003,8.268731e+001
1.481086e+003,8.715698e+001
1.483979e+003,9.073169e+001
1.486872e+003,9.235661e+001
1.489764e+003,9.317587e+001
1.492657e+003,9.347186e+001
1.495550e+003,9.363611e+001
1.498443e+003,9.366451e+001
1.501335e+003,9.360327e+001
1.504228e+003,9.361647e+001
1.507121e+003,9.388551e+001
1.510014e+003,9.368800e+001
1.512906e+003,9.373436e+001
1.515799e+003,9.390808e+001
1.518692e+003,9.400610e+001
1.521584e+003,9.412770e+001
1.524477e+003,9.421661e+001
1.527370e+003,9.425140e+001
1.530263e+003,9.431002e+001
1.533156e+003,9.441331e+001
1.536048e+003,9.440069e+001
1.538941e+003,9.452762e+001
1.541834e+003,9.458418e+001
1.544726e+003,9.448513e+001
1.547619e+003,9.441884e+001
1.550512e+003,9.452189e+001
1.553405e+003,9.443732e+001
1.556297e+003,9.442976e+001
1.559190e+003,9.482116e+001
1.562083e+003,9.435419e+001
1.564976e+003,9.433601e+001
1.567869e+003,9.426091e+001
1.570761e+003,9.418822e+001
1.573654e+003,9.409648e+001
1.576547e+003,9.405290e+001
1.579439e+003,9.385550e+001
1.582332e+003,9.372746e+001
1.585225e+003,9.368410e+001
1.588118e+003,9.358864e+001
1.591010e+003,9.348546e+001
1.593903e+003,9.335563e+001
1.596796e+003,9.320855e+001
1.599689e+003,9.304501e+001
1.602581e+003,9.290144e+001
1.605474e+003,9.275645e+001
1.608367e+003,9.265878e+001
1.611260e+003,9.237351e+001
1.614152e+003,9.234180e+001
1.617045e+003,9.235204e+001
1.619938e+003,9.202444e+001
1.622831e+003,9.187592e+001
1.625723e+003,9.170710e+001
1.628616e+003,9.149344e+001
1.631509e+003,9.131261e+001
1.634402e+003,9.130609e+001
1.637294e+003,9.125617e+001
1.640187e+003,9.109249e+001
1.643080e+003,9.101768e+001
1.645973e+003,9.089568e+001
1.648865e+003,9.085175e+001
1.651758e+003,9.058080e+001
1.654651e+003,9.025051e+001
1.657544e+003,8.985169e+001
1.660436e+003,8.940278e+001
1.663329e+003,8.884962e+001
1.666222e+003,8.804597e+001
1.669115e+003,8.730978e+001
1.672007e+003,8.610713e+001
1.674900e+003,8.463373e+001
1.677793e+003,8.282005e+001
1.680686e+003,8.049269e+001
1.683578e+003,7.864883e+001
1.686471e+003,7.633646e+001
1.689364e+003,7.446791e+001
1.692257e+003,7.281541e+001
1.695149e+003,7.095647e+001
1.698042e+003,6.863126e+001
1.700935e+003,6.556621e+001
1.703828e+003,6.226556e+001
1.706720e+003,5.714104e+001
1.709613e+003,5.085726e+001
1.712506e+003,4.234137e+001
1.715399e+003,3.189121e+001
1.718291e+003,2.252080e+001
1.721184e+003,2.001187e+001
1.724077e+003,2.490334e+001
1.726969e+003,3.339120e+001
1.729862e+003,4.032145e+001
1.732755e+003,4.523549e+001
1.735648e+003,5.312875e+001
1.738541e+003,5.947722e+001
1.741433e+003,6.829224e+001
1.744326e+003,7.684952e+001
1.747219e+003,8.336210e+001
1.750111e+003,8.783390e+001
1.753004e+003,9.076974e+001
1.755897e+003,9.219411e+001
1.758790e+003,9.313377e+001
1.761682e+003,9.392355e+001
1.764575e+003,9.421618e+001
1.767468e+003,9.453850e+001
1.770361e+003,9.495599e+001
1.773253e+003,9.542577e+001
1.776146e+003,9.558483e+001
1.779039e+003,9.596209e+001
1.781932e+003,9.618317e+001
1.784824e+003,9.646400e+001
1.787717e+003,9.666289e+001
1.790610e+003,9.692595e+001
1.793503e+003,9.715096e+001
1.796395e+003,9.718965e+001
1.799288e+003,9.746134e+001
1.802181e+003,9.758444e+001
1.805074e+003,9.773729e+001
1.807966e+003,9.780930e+001
1.810859e+003,9.789301e+001
1.813752e+003,9.801833e+001
1.816645e+003,9.819394e+001
1.819537e+003,9.815749e+001
1.822430e+003,9.818994e+001
1.825323e+003,9.827392e+001
1.828216e+003,9.838342e+001
1.831108e+003,9.840691e+001
1.834001e+003,9.841263e+001
1.836894e+003,9.838560e+001
1.839787e+003,9.842201e+001
1.842679e+003,9.839643e+001
1.845572e+003,9.837284e+001
1.848465e+003,9.845638e+001
1.851358e+003,9.851473e+001
1.854250e+003,9.860299e+001
1.857143e+003,9.859632e+001
1.860036e+003,9.877840e+001
1.862929e+003,9.873005e+001
1.865821e+003,9.870739e+001
1.868714e+003,9.859570e+001
1.871607e+003,9.861366e+001
1.874500e+003,9.869731e+001
1.877392e+003,9.873375e+001
1.880285e+003,9.878860e+001
1.883178e+003,9.861501e+001
1.886071e+003,9.865776e+001
1.888963e+003,9.876536e+001
1.891856e+003,9.868678e+001
1.894749e+003,9.871280e+001
1.897642e+003,9.873691e+001
1.900534e+003,9.869092e+001
1.903427e+003,9.863998e+001
1.906320e+003,9.874936e+001
1.909213e+003,9.860867e+001
1.912105e+003,9.857716e+001
1.914998e+003,9.867228e+001
1.917891e+003,9.854372e+001
1.920784e+003,9.851004e+001
1.923676e+003,9.882352e+001
1.926569e+003,9.861525e+001
1.929462e+003,9.869534e+001
1.932354e+003,9.875929e+001
1.935247e+003,9.878891e+001
1.938140e+003,9.890301e+001
1.941033e+003,9.882725e+001
1.943926e+003,9.866215e+001
1.946818e+003,9.882164e+001
1.949711e+003,9.872522e+001
1.952604e+003,9.872934e+001
1.955496e+003,9.892603e+001
1.958389e+003,9.878141e+001
1.961282e+003,9.863430e+001
1.964175e+003,9.871779e+001
1.967068e+003,9.867424e+001
1.969960e+003,9.884746e+001
1.972853e+003,9.882553e+001
1.975746e+003,9.867718e+001
1.978638e+003,9.824422e+001
1.981531e+003,9.863129e+001
1.984424e+003,9.862520e+001
1.987317e+003,9.876896e+001
1.990209e+003,9.861389e+001
1.993102e+003,9.882076e+001
1.995995e+003,9.880672e+001
1.998888e+003,9.871693e+001
2.001780e+003,9.870354e+001
2.004673e+003,9.890412e+001
2.007566e+003,9.869424e+001
2.010459e+003,9.848072e+001
2.013351e+003,9.870451e+001
2.016244e+003,9.888293e+001
2.019137e+003,9.896370e+001
2.022030e+003,9.856048e+001
2.024922e+003,9.856255e+001
2.027815e+003,9.848403e+001
2.030708e+003,9.841588e+001
2.033601e+003,9.840186e+001
2.036493e+003,9.848200e+001
2.039386e+003,9.864845e+001
2.042279e+003,9.826064e+001
2.045172e+003,9.857140e+001
2.048064e+003,9.832716e+001
2.050957e+003,9.835620e+001
2.053850e+003,9.868542e+001
2.056743e+003,9.837288e+001
2.059635e+003,9.859993e+001
2.062528e+003,9.858511e+001
2.065421e+003,9.844351e+001
2.068314e+003,9.841565e+001
2.071206e+003,9.825282e+001
2.074099e+003,9.841357e+001
2.076992e+003,9.834249e+001
2.079885e+003,9.828520e+001
2.082777e+003,9.839302e+001
2.085670e+003,9.825211e+001
2.088563e+003,9.845466e+001
2.091456e+003,9.842428e+001
2.094348e+003,9.840459e+001
2.097241e+003,9.816430e+001
2.100134e+003,9.842201e+001
2.103027e+003,9.832130e+001
2.105919e+003,9.851764e+001
2.108812e+003,9.840316e+001
2.111705e+003,9.839134e+001
2.114598e+003,9.851986e+001
2.117490e+003,9.861375e+001
2.120383e+003,9.872154e+001
2.123276e+003,9.869280e+001
2.126168e+003,9.880784e+001
2.129061e+003,9.899048e+001
2.131954e+003,9.910612e+001
2.134847e+003,9.915894e+001
2.137740e+003,9.882177e+001
2.140632e+003,9.876985e+001
2.143525e+003,9.895906e+001
2.146418e+003,9.901270e+001
2.149311e+003,9.905353e+001
2.152203e+003,9.892765e+001
2.155096e+003,9.902398e+001
2.157989e+003,9.928523e+001
2.160882e+003,9.792976e+001
2.163774e+003,9.846667e+001
2.166667e+003,9.855906e+001
2.169560e+003,9.863667e+001
2.172452e+003,9.873520e+001
2.175345e+003,9.876691e+001
2.178238e+003,9.890612e+001
2.181131e+003,9.885006e+001
2.184023e+003,9.877690e+001
2.186916e+003,9.844476e+001
2.189809e+003,9.869138e+001
2.192702e+003,9.865234e+001
2.195594e+003,9.887366e+001
2.198487e+003,9.874113e+001
2.201380e+003,9.861375e+001
2.204273e+003,9.877847e+001
2.207166e+003,9.864710e+001
2.210058e+003,9.868311e+001
2.212951e+003,9.866549e+001
2.215844e+003,9.879782e+001
2.218736e+003,9.880222e+001
2.221629e+003,9.863183e+001
2.224522e+003,9.854905e+001
2.227415e+003,9.875743e+001
2.230307e+003,9.868903e+001
2.233200e+003,9.879620e+001
2.236093e+003,9.850977e+001
2.238986e+003,9.866640e+001
2.241878e+003,9.867001e+001
2.244771e+003,9.860449e+001
2.247664e+003,9.889554e+001
2.250557e+003,9.872496e+001
2.253449e+003,9.874176e+001
2.256342e+003,9.866310e+001
2.259235e+003,9.870364e+001
2.262128e+003,9.861842e+001
2.265020e+003,9.876021e+001
2.267913e+003,9.869460e+001
2.270806e+003,9.864880e+001
2.273699e+003,9.864735e+001
2.276591e+003,9.850568e+001
2.279484e+003,9.853116e+001
2.282377e+003,9.843454e+001
2.285270e+003,9.829749e+001
2.288162e+003,9.847839e+001
2.291055e+003,9.842247e+001
2.293948e+003,9.858967e+001
2.296841e+003,9.845425e+001
2.299733e+003,9.850871e+001
2.302626e+003,9.851012e+001
2.305519e+003,9.849193e+001
2.308412e+003,9.843810e+001
2.311304e+003,9.855897e+001
2.314197e+003,9.849249e+001
2.317090e+003,9.837183e+001
2.319983e+003,9.823223e+001
2.322875e+003,9.820768e+001
2.325768e+003,9.841317e+001
2.328661e+003,9.852531e+001
2.331553e+003,9.830830e+001
2.334446e+003,9.836815e+001
2.337339e+003,9.831119e+001
2.340232e+003,9.839690e+001
2.343125e+003,9.838326e+001
2.346017e+003,9.853271e+001
2.348910e+003,9.844181e+001
2.351803e+003,9.859280e+001
2.354696e+003,9.850003e+001
2.357588e+003,9.860169e+001
2.360481e+003,9.874261e+001
2.363374e+003,9.874781e+001
2.366267e+003,9.909964e+001
2.369159e+003,9.856010e+001
2.372052e+003,9.872929e+001
2.374945e+003,9.877115e+001
2.377837e+003,9.886713e+001
2.380730e+003,9.879066e+001
2.383623e+003,9.882185e+001
2.386516e+003,9.876752e+001
2.389408e+003,9.887864e+001
2.392301e+003,9.876427e+001
2.395194e+003,9.872921e+001
2.398087e+003,9.876063e+001
2.400979e+003,9.873360e+001
2.403872e+003,9.867842e+001
2.406765e+003,9.862654e+001
2.409658e+003,9.853078e+001
2.412551e+003,9.848857e+001
2.415443e+003,9.857200e+001
2.418336e+003,9.853555e+001
2.421229e+003,9.857794e+001
2.424121e+003,9.857248e+001
2.427014e+003,9.864018e+001
2.429907e+003,9.861422e+001
2.432800e+003,9.862257e+001
2.435692e+003,9.865562e+001
2.438585e+003,9.858633e+001
2.441478e+003,9.855019e+001
2.444371e+003,9.869579e+001
2.447263e+003,9.863106e+001
2.450156e+003,9.862723e+001
2.453049e+003,9.869075e+001
2.455942e+003,9.862228e+001
2.458834e+003,9.867281e+001
2.461727e+003,9.868147e+001
2.464620e+003,9.861740e+001
2.467513e+003,9.856941e+001
2.470405e+003,9.859534e+001
2.473298e+003,9.855746e+001
2.476191e+003,9.850982e+001
2.479084e+003,9.860462e+001
2.481976e+003,9.852264e+001
2.484869e+003,9.854100e+001
2.487762e+003,9.859429e+001
2.490655e+003,9.857110e+001
2.493547e+003,9.853260e+001
2.496440e+003,9.856087e+001
2.499333e+003,9.855856e+001
2.502226e+003,9.860369e+001
2.505118e+003,9.861810e+001
2.508011e+003,9.856083e+001
2.510904e+003,9.852926e+001
2.513797e+003,9.852465e+001
2.516689e+003,9.855324e+001
2.519582e+003,9.851613e+001
2.522475e+003,9.846891e+001
2.525368e+003,9.842168e+001
2.528260e+003,9.843924e+001
2.531153e+003,9.840309e+001
2.534046e+003,9.831106e+001
2.536938e+003,9.838964e+001
2.539831e+003,9.834509e+001
2.542724e+003,9.838550e+001
2.545617e+003,9.842401e+001
2.548510e+003,9.843291e+001
2.551402e+003,9.837498e+001
2.554295e+003,9.842021e+001
2.557188e+003,9.834499e+001
2.560081e+003,9.838971e+001
2.562973e+003,9.841995e+001
2.565866e+003,9.824648e+001
2.568759e+003,9.835291e+001
2.571652e+003,9.828497e+001
2.574544e+003,9.829228e+001
2.577437e+003,9.823083e+001
2.580330e+003,9.821596e+001
2.583222e+003,9.826792e+001
2.586115e+003,9.824309e+001
2.589008e+003,9.829378e+001
2.591901e+003,9.830396e+001
2.594793e+003,9.826392e+001
2.597686e+003,9.818024e+001
2.600579e+003,9.822398e+001
2.603472e+003,9.817762e+001
2.606365e+003,9.818250e+001
2.609257e+003,9.816612e+001
2.612150e+003,9.819666e+001
2.615043e+003,9.816776e+001
2.617936e+003,9.814999e+001
2.620828e+003,9.815928e+001
2.623721e+003,9.813795e+001
2.626614e+003,9.810496e+001
2.629506e+003,9.813099e+001
2.632399e+003,9.809477e+001
2.635292e+003,9.802744e+001
2.638185e+003,9.805831e+001
2.641077e+003,9.801151e+001
2.643970e+003,9.798808e+001
2.646863e+003,9.793968e+001
2.649756e+003,9.794809e+001
2.652648e+003,9.794801e+001
2.655541e+003,9.794511e+001
2.658434e+003,9.795269e+001
2.661327e+003,9.795261e+001
2.664219e+003,9.798348e+001
2.667112e+003,9.805438e+001
2.670005e+003,9.798102e+001
2.672898e+003,9.802786e+001
2.675790e+003,9.794758e+001
2.678683e+003,9.802426e+001
2.681576e+003,9.796637e+001
2.684469e+003,9.794057e+001
2.687361e+003,9.792158e+001
2.690254e+003,9.789511e+001
2.693147e+003,9.796744e+001
2.696040e+003,9.794294e+001
2.698932e+003,9.789401e+001
2.701825e+003,9.794150e+001
2.704718e+003,9.790279e+001
2.707611e+003,9.783836e+001
2.710503e+003,9.784375e+001
2.713396e+003,9.782309e+001
2.716289e+003,9.778864e+001
2.719182e+003,9.779049e+001
2.722074e+003,9.780583e+001
2.724967e+003,9.778431e+001
2.727860e+003,9.778386e+001
2.730753e+003,9.774837e+001
2.733645e+003,9.777623e+001
2.736538e+003,9.774516e+001
2.739431e+003,9.777463e+001
2.742323e+003,9.770280e+001
2.745216e+003,9.770116e+001
2.748109e+003,9.758466e+001
2.751002e+003,9.764066e+001
2.753895e+003,9.759873e+001
2.756787e+003,9.755599e+001
2.759680e+003,9.759333e+001
2.762573e+003,9.757955e+001
2.765466e+003,9.755431e+001
2.768358e+003,9.742615e+001
2.771251e+003,9.750035e+001
2.774144e+003,9.739282e+001
2.777037e+003,9.744733e+001
2.779929e+003,9.738485e+001
2.782822e+003,9.728343e+001
2.785715e+003,9.731934e+001
2.788607e+003,9.729256e+001
2.791500e+003,9.722561e+001
2.794393e+003,9.712575e+001
2.797286e+003,9.714482e+001
2.800178e+003,9.698757e+001
2.803071e+003,9.691098e+001
2.805964e+003,9.684744e+001
2.808857e+003,9.675224e+001
2.811750e+003,9.654164e+001
2.814642e+003,9.634344e+001
2.817535e+003,9.614242e+001
2.820428e+003,9.595467e+001
2.823321e+003,9.582246e+001
2.826213e+003,9.560094e+001
2.829106e+003,9.537077e+001
2.831999e+003,9.513004e+001
2.834891e+003,9.477976e+001
2.837784e+003,9.428997e+001
2.840677e+003,9.359393e+001
2.843570e+003,9.270432e+001
2.846462e+003,9.148223e+001
2.849355e+003,8.975826e+001
2.852248e+003,8.786565e+001
2.855141e+003,8.583778e+001
2.858033e+003,8.392336e+001
2.860926e+003,8.206276e+001
2.863819e+003,8.077984e+001
2.866712e+003,8.083266e+001
2.869604e+003,8.203870e+001
2.872497e+003,8.404919e+001
2.875390e+003,8.613541e+001
2.878283e+003,8.757168e+001
2.881175e+003,8.831367e+001
2.884068e+003,8.845232e+001
2.886961e+003,8.779642e+001
2.889854e+003,8.641974e+001
2.892746e+003,8.495267e+001
2.895639e+003,8.459894e+001
2.898532e+003,8.509637e+001
2.901425e+003,8.518620e+001
2.904317e+003,8.454362e+001
2.907210e+003,8.375626e+001
2.910103e+003,8.291433e+001
2.912996e+003,8.213390e+001
2.915888e+003,8.129276e+001
2.918781e+003,8.011966e+001
2.921674e+003,7.881866e+001
2.924567e+003,7.758462e+001
2.927459e+003,7.675780e+001
2.930352e+003,7.587029e+001
2.933245e+003,7.463161e+001
2.936137e+003,7.373582e+001
2.939030e+003,7.332552e+001
2.941923e+003,7.292286e+001
2.944816e+003,7.288712e+001
2.947708e+003,7.361156e+001
2.950601e+003,7.490258e+001
2.953494e+003,7.625649e+001
2.956387e+003,7.763216e+001
2.959280e+003,7.982633e+001
2.962172e+003,8.225018e+001
2.965065e+003,8.434631e+001
2.967958e+003,8.634849e+001
2.970851e+003,8.825592e+001
2.973743e+003,8.998151e+001
2.976636e+003,9.136747e+001
2.979529e+003,9.252198e+001
2.982422e+003,9.351988e+001
2.985314e+003,9.421970e+001
2.988207e+003,9.485905e+001
2.991100e+003,9.531287e+001
2.993992e+003,9.577682e+001
2.996885e+003,9.612357e+001
2.999778e+003,9.630921e+001
3.002671e+003,9.657495e+001
3.005563e+003,9.668152e+001
3.008456e+003,9.682867e+001
3.011349e+003,9.701465e+001
3.014242e+003,9.699553e+001
3.017135e+003,9.701373e+001
3.020027e+003,9.705772e+001
3.022920e+003,9.722332e+001
3.025813e+003,9.714412e+001
3.028706e+003,9.719782e+001
3.031598e+003,9.713229e+001
3.034491e+003,9.725381e+001
3.037384e+003,9.726457e+001
3.040276e+003,9.726740e+001
3.043169e+003,9.722252e+001
3.046062e+003,9.724722e+001
3.048955e+003,9.733368e+001
3.051847e+003,9.725732e+001
3.054740e+003,9.725803e+001
3.057633e+003,9.723922e+001
3.060526e+003,9.730304e+001
3.063418e+003,9.713844e+001
3.066311e+003,9.723486e+001
3.069204e+003,9.725951e+001
3.072097e+003,9.725732e+001
3.074990e+003,9.725021e+001
3.077882e+003,9.724010e+001
3.080775e+003,9.727079e+001
3.083668e+003,9.722861e+001
3.086560e+003,9.728049e+001
3.089453e+003,9.730731e+001
3.092346e+003,9.728892e+001
3.095239e+003,9.728114e+001
3.098131e+003,9.736024e+001
3.101024e+003,9.727921e+001
3.103917e+003,9.733726e+001
3.106810e+003,9.725784e+001
3.109702e+003,9.719512e+001
3.112595e+003,9.732672e+001
3.115488e+003,9.723454e+001
3.118381e+003,9.729634e+001
3.121273e+003,9.720188e+001
3.124166e+003,9.728484e+001
3.127059e+003,9.728142e+001
3.129952e+003,9.721066e+001
3.132844e+003,9.726769e+001
3.135737e+003,9.723632e+001
3.138630e+003,9.718790e+001
3.141522e+003,9.719567e+001
3.144415e+003,9.718638e+001
3.147308e+003,9.723215e+001
3.150201e+003,9.721196e+001
3.153094e+003,9.709441e+001
3.155986e+003,9.724948e+001
3.158879e+003,9.719778e+001
3.161772e+003,9.725191e+001
3.164665e+003,9.719859e+001
3.167557e+003,9.730139e+001
3.170450e+003,9.719164e+001
3.173343e+003,9.722565e+001
3.176236e+003,9.720424e+001
3.179128e+003,9.711834e+001
3.182021e+003,9.715335e+001
3.184914e+003,9.717182e+001
3.187806e+003,9.719672e+001
3.190699e+003,9.720979e+001
3.193592e+003,9.711283e+001
3.196485e+003,9.717986e+001
3.199377e+003,9.714860e+001
3.202270e+003,9.719186e+001
3.205163e+003,9.705550e+001
3.208056e+003,9.711382e+001
3.210948e+003,9.717128e+001
3.213841e+003,9.719691e+001
3.216734e+003,9.712347e+001
3.219627e+003,9.715314e+001
3.222520e+003,9.707420e+001
3.225412e+003,9.713962e+001
3.228305e+003,9.712129e+001
3.231198e+003,9.706822e+001
3.234091e+003,9.719795e+001
3.236983e+003,9.717024e+001
3.239876e+003,9.704061e+001
3.242769e+003,9.715003e+001
3.245661e+003,9.710162e+001
3.248554e+003,9.716905e+001
3.251447e+003,9.702839e+001
3.254340e+003,9.708090e+001
3.257232e+003,9.708279e+001
3.260125e+003,9.717358e+001
3.263018e+003,9.714841e+001
3.265911e+003,9.710474e+001
3.268803e+003,9.711544e+001
3.271696e+003,9.705854e+001
3.274589e+003,9.717050e+001
3.277482e+003,9.708742e+001
3.280375e+003,9.714204e+001
3.283267e+003,9.713454e+001
3.286160e+003,9.708938e+001
3.289053e+003,9.703978e+001
3.291945e+003,9.710445e+001
3.294838e+003,9.708234e+001
3.297731e+003,9.714382e+001
3.300624e+003,9.715512e+001
3.303516e+003,9.711472e+001
3.306409e+003,9.712460e+001
3.309302e+003,9.707697e+001
3.312195e+003,9.712006e+001
3.315087e+003,9.709122e+001
3.317980e+003,9.702510e+001
3.320873e+003,9.711024e+001
3.323766e+003,9.708956e+001
3.326658e+003,9.714198e+001
3.329551e+003,9.709931e+001
3.332444e+003,9.707094e+001
3.335337e+003,9.700637e+001
3.338229e+003,9.711997e+001
3.341122e+003,9.711845e+001
3.344015e+003,9.703681e+001
3.346907e+003,9.718469e+001
3.349800e+003,9.712746e+001
3.352693e+003,9.708267e+001
3.355586e+003,9.723112e+001
3.358479e+003,9.719055e+001
3.361371e+003,9.718511e+001
3.364264e+003,9.712988e+001
3.367157e+003,9.724078e+001
3.370050e+003,9.712063e+001
3.372942e+003,9.722559e+001
3.375835e+003,9.715286e+001
3.378728e+003,9.722916e+001
3.381621e+003,9.724462e+001
3.384513e+003,9.711899e+001
3.387406e+003,9.735061e+001
3.390299e+003,9.718718e+001
3.393191e+003,9.726768e+001
3.396084e+003,9.715123e+001
3.398977e+003,9.729399e+001
3.401870e+003,9.720646e+001
3.404762e+003,9.720496e+001
3.407655e+003,9.725658e+001
3.410548e+003,9.725610e+001
3.413441e+003,9.718472e+001
3.416333e+003,9.725977e+001
3.419226e+003,9.722708e+001
3.422119e+003,9.709598e+001
3.425012e+003,9.703726e+001
3.427905e+003,9.697153e+001
3.430797e+003,9.678738e+001
3.433690e+003,9.670271e+001
3.436583e+003,9.666599e+001
3.439475e+003,9.669501e+001
3.442368e+003,9.678332e+001
3.445261e+003,9.687450e+001
3.448154e+003,9.685736e+001
3.451046e+003,9.706419e+001
3.453939e+003,9.708465e+001
3.456832e+003,9.710518e+001
3.459725e+003,9.726698e+001
3.462617e+003,9.721574e+001
3.465510e+003,9.739854e+001
3.468403e+003,9.741846e+001
3.471296e+003,9.757755e+001
3.474188e+003,9.749920e+001
3.477081e+003,9.764154e+001
3.479974e+003,9.755306e+001
3.482867e+003,9.769894e+001
3.485760e+003,9.767844e+001
3.488652e+003,9.770280e+001
3.491545e+003,9.782604e+001
3.494438e+003,9.760612e+001
3.497330e+003,9.771703e+001
3.500223e+003,9.777819e+001
3.503116e+003,9.777903e+001
3.506009e+003,9.786215e+001
3.508901e+003,9.784983e+001
3.511794e+003,9.785294e+001
3.514687e+003,9.785359e+001
3.517580e+003,9.784400e+001
3.520472e+003,9.797617e+001
3.523365e+003,9.788323e+001
3.526258e+003,9.790135e+001
3.529151e+003,9.783897e+001
3.532043e+003,9.796891e+001
3.534936e+003,9.798730e+001
3.537829e+003,9.794722e+001
3.540722e+003,9.797005e+001
3.543614e+003,9.796631e+001
3.546507e+003,9.804678e+001
3.549400e+003,9.805604e+001
3.552292e+003,9.819439e+001
3.555185e+003,9.799722e+001
3.558078e+003,9.823588e+001
3.560971e+003,9.814545e+001
3.563864e+003,9.820429e+001
3.566756e+003,9.840011e+001
3.569649e+003,9.832340e+001
3.572542e+003,9.838032e+001
3.575435e+003,9.847040e+001
3.578327e+003,9.840184e+001
3.581220e+003,9.851449e+001
3.584113e+003,9.850502e+001
3.587006e+003,9.862946e+001
3.589898e+003,9.864470e+001
3.592791e+003,9.842612e+001
3.595684e+003,9.857835e+001
3.598576e+003,9.848280e+001
3.601469e+003,9.846319e+001
3.604362e+003,9.844708e+001
3.607255e+003,9.855291e+001
3.610147e+003,9.865111e+001
3.613040e+003,9.869520e+001
3.615933e+003,9.865485e+001
3.618826e+003,9.869838e+001
3.621719e+003,9.870975e+001
3.624611e+003,9.873502e+001
3.627504e+003,9.908313e+001
3.630397e+003,9.881488e+001
3.633290e+003,9.877512e+001
3.636182e+003,9.869547e+001
3.639075e+003,9.887811e+001
3.641968e+003,9.903386e+001
3.644860e+003,9.900214e+001
3.647753e+003,9.923484e+001
3.650646e+003,9.943076e+001
3.653539e+003,9.900473e+001
3.656431e+003,9.929224e+001
3.659324e+003,9.913073e+001
3.662217e+003,9.926094e+001
3.665110e+003,9.928339e+001
3.668002e+003,9.914948e+001
3.670895e+003,9.937203e+001
3.673788e+003,9.930139e+001
3.676681e+003,9.939594e+001
3.679573e+003,9.918048e+001
3.682466e+003,9.921083e+001
3.685359e+003,9.935406e+001
3.688252e+003,9.945464e+001
3.691145e+003,9.954868e+001
3.694037e+003,9.939635e+001
3.696930e+003,9.937520e+001
3.699823e+003,9.943869e+001
3.702715e+003,9.927271e+001
3.705608e+003,9.932463e+001
3.708501e+003,9.951930e+001
3.711394e+003,9.926629e+001
3.714286e+003,9.933756e+001
3.717179e+003,9.946187e+001
3.720072e+003,9.939879e+001
3.722965e+003,9.938415e+001
3.725857e+003,9.949794e+001
3.728750e+003,9.949654e+001
3.731643e+003,9.960902e+001
3.734536e+003,9.937739e+001
3.737428e+003,9.947704e+001
3.740321e+003,9.939742e+001
3.743214e+003,9.965453e+001
3.746107e+003,9.949192e+001
3.748999e+003,9.975503e+001
3.751892e+003,9.994423e+001
3.754785e+003,9.941785e+001
3.757677e+003,9.948073e+001
3.760570e+003,9.953364e+001
3.763463e+003,9.930879e+001
3.766356e+003,9.943621e+001
3.769249e+003,9.942040e+001
3.772141e+003,9.943208e+001
3.775034e+003,9.940688e+001
3.777927e+003,9.948888e+001
3.780820e+003,9.934062e+001
3.783712e+003,9.941171e+001
3.786605e+003,9.946068e+001
3.789498e+003,9.946313e+001
3.792391e+003,9.943412e+001
3.795283e+003,9.940967e+001
3.798176e+003,9.949506e+001
3.801069e+003,9.917402e+001
3.803961e+003,9.943522e+001
3.806854e+003,9.968404e+001
3.809747e+003,9.954113e+001
3.812640e+003,9.940823e+001
3.815532e+003,9.982803e+001
3.818425e+003,9.955899e+001
3.821318e+003,9.959721e+001
3.824211e+003,9.936045e+001
3.827104e+003,9.944069e+001
3.829996e+003,9.942496e+001
3.832889e+003,9.948941e+001
3.835782e+003,9.935159e+001
3.838675e+003,9.965112e+001
3.841567e+003,9.948138e+001
3.844460e+003,9.935928e+001
3.847353e+003,9.940304e+001
3.850245e+003,9.952920e+001
3.853138e+003,1.001405e+002
3.856031e+003,9.928393e+001
3.858924e+003,9.936312e+001
3.861816e+003,9.948462e+001
3.864709e+003,9.970371e+001
3.867602e+003,9.942342e+001
3.870495e+003,9.969066e+001
3.873387e+003,9.931841e+001
3.876280e+003,9.930007e+001
3.879173e+003,9.946774e+001
3.882066e+003,9.947800e+001
3.884958e+003,9.945642e+001
3.887851e+003,9.938162e+001
3.890744e+003,9.941397e+001
3.893637e+003,9.940022e+001
3.896529e+003,9.928002e+001
3.899422e+003,9.929470e+001
3.902315e+003,9.924200e+001
3.905208e+003,9.965274e+001
3.908100e+003,9.932121e+001
3.910993e+003,9.944923e+001
3.913886e+003,9.948923e+001
3.916779e+003,9.941360e+001
3.919671e+003,9.943771e+001
3.922564e+003,9.935350e+001
3.925457e+003,9.950761e+001
3.928350e+003,9.938757e+001
3.931242e+003,9.935814e+001
3.934135e+003,9.932620e+001
3.937028e+003,9.930179e+001
3.939921e+003,9.933702e+001
3.942813e+003,9.948226e+001
3.945706e+003,9.932614e+001
3.948599e+003,9.946016e+001
3.951492e+003,9.942678e+001
3.954384e+003,9.944118e+001
3.957277e+003,9.942897e+001
3.960170e+003,9.927151e+001
3.963063e+003,9.938246e+001
3.965955e+003,9.931102e+001
3.968848e+003,9.935148e+001
3.971741e+003,9.940227e+001
3.974634e+003,9.940981e+001
3.977526e+003,9.932277e+001
3.980419e+003,9.926987e+001
3.983312e+003,9.932706e+001
3.986205e+003,9.948937e+001
3.989097e+003,9.945263e+001
3.991990e+003,9.936121e+001
3.994883e+003,9.938005e+001
3.997776e+003,9.926343e+001
4.000668e+003,0.000000e+000