File: FTIR Data (PCL)/All Data/PCL_NaOH_2_3.CSV
3.991989e+002,0.000000e+000
4.020916e+002,0.000000e+000
4.049844e+002,0.000000e+000
4.078771e+002,0.000000e+000
4.107699e+002,0.000000e+000
4.136626e+002,0.000000e+000
4.165554e+002,0.000000e+000
4.194481e+002,0.000000e+000
4.223409e+002,0.000000e+000
4.252336e+002,0.000000e+000
4.281263e+002,0.000000e+000
4.310191e+002,0.000000e+000
4.339118e+002,0.000000e+000
4.368046e+002,0.000000e+000
4.396973e+002,0.000000e+000
4.425901e+002,0.000000e+000
4.454828e+002,0.000000e+000
4.483756e+002,0.000000e+000
4.512683e+002,0.000000e+000
4.541611e+002,0.000000e+000
4.570538e+002,0.000000e+000
4.599466e+002,0.000000e+000
4.628393e+002,0.000000e+000
4.657321e+002,0.000000e+000
4.686248e+002,0.000000e+000
4.715175e+002,0.000000e+000
4.744103e+002,0.000000e+000
4.773030e+002,0.000000e+000
4.801958e+002,0.000000e+000
4.830885e+002,0.000000e+000
4.859813e+002,0.000000e+000
4.888740e+002,0.000000e+000
4.917668e+002,0.000000e+000
4.946595e+002,0.000000e+000
4.975523e+002,0.000000e+000
5.004450e+002,0.000000e+000
5.033378e+002,0.000000e+000
5.062305e+002,0.000000e+000
5.091233e+002,0.000000e+000
5.120160e+002,0.000000e+000
5.149088e+002,0.000000e+000
5.178015e+002,0.000000e+000
5.206942e+002,0.000000e+000
5.235870e+002,0.000000e+000
5.264797e+002,0.000000e+000
5.293725e+002,0.000000e+000
5.322652e+002,0.000000e+000
5.351580e+002,0.000000e+000
5.380507e+002,0.000000e+000
5.409435e+002,0.000000e+000
5.438362e+002,0.000000e+000
5.467289e+002,0.000000e+000
5.496217e+002,8.424376e+001
5.525145e+002,8.301259e+001
5.554072e+002,8.616846e+001
5.582999e+002,8.342030e+001
5.611927e+002,8.489686e+001
5.640854e+002,8.261282e+001
5.669782e+002,8.103323e+001
5.698709e+002,8.098724e+001
5.727637e+002,7.982105e+001
5.756564e+002,7.522498e+001
5.785492e+002,7.822382e+001
5.814419e+002,7.656099e+001
5.843347e+002,7.729392e+001
5.872274e+002,7.806052e+001
5.901202e+002,8.036230e+001
5.930129e+002,8.120866e+001
5.959056e+002,8.297511e+001
5.987984e+002,8.432990e+001
6.016912e+002,8.380928e+001
6.045839e+002,8.434190e+001
6.074766e+002,8.547135e+001
6.103694e+002,8.504177e+001
6.132621e+002,8.549103e+001
6.161548e+002,8.584227e+001
6.190476e+002,8.590895e+001
6.219404e+002,8.678753e+001
6.248331e+002,8.566847e+001
6.277258e+002,8.607876e+001
6.306186e+002,8.568850e+001
6.335114e+002,8.629089e+001
6.364041e+002,8.661921e+001
6.392968e+002,8.637768e+001
6.421896e+002,8.611443e+001
6.450823e+002,8.588208e+001
6.479751e+002,8.614346e+001
6.508679e+002,8.627380e+001
6.537606e+002,8.657871e+001
6.566533e+002,8.657584e+001
6.595461e+002,8.654311e+001
6.624388e+002,8.631116e+001
6.653315e+002,8.637550e+001
6.682243e+002,8.613729e+001
6.711171e+002,8.628574e+001
6.740098e+002,8.611552e+001
6.769025e+002,8.562390e+001
6.797953e+002,8.533455e+001
6.826880e+002,8.489747e+001
6.855808e+002,8.426637e+001
6.884735e+002,8.352829e+001
6.913663e+002,8.268965e+001
6.942590e+002,8.145872e+001
6.971518e+002,8.005549e+001
7.000445e+002,7.831925e+001
7.029373e+002,7.617229e+001
7.058300e+002,7.371778e+001
7.087228e+002,7.199068e+001
7.116155e+002,7.277854e+001
7.145082e+002,7.460937e+001
7.174010e+002,7.544440e+001
7.202938e+002,7.438015e+001
7.231865e+002,6.912634e+001
7.260792e+002,6.089684e+001
7.289720e+002,5.794447e+001
7.318647e+002,5.525682e+001
7.347575e+002,6.176918e+001
7.376502e+002,6.952818e+001
7.405430e+002,7.581663e+001
7.434357e+002,8.054088e+001
7.463285e+002,8.330345e+001
7.492212e+002,8.505501e+001
7.521140e+002,8.622327e+001
7.550067e+002,8.707279e+001
7.578995e+002,8.765458e+001
7.607922e+002,8.775399e+001
7.636849e+002,8.726610e+001
7.665777e+002,8.635419e+001
7.694705e+002,8.541512e+001
7.723632e+002,8.461548e+001
7.752559e+002,8.511028e+001
7.781487e+002,8.612487e+001
7.810414e+002,8.688426e+001
7.839341e+002,8.744370e+001
7.868269e+002,8.768718e+001
7.897197e+002,8.784658e+001
7.926124e+002,8.788332e+001
7.955051e+002,8.795263e+001
7.983979e+002,8.786325e+001
8.012906e+002,8.769678e+001
8.041834e+002,8.776907e+001
8.070761e+002,8.767372e+001
8.099689e+002,8.770826e+001
8.128616e+002,8.769337e+001
8.157544e+002,8.771291e+001
8.186472e+002,8.772372e+001
8.215399e+002,8.752909e+001
8.244326e+002,8.717307e+001
8.273254e+002,8.682423e+001
8.302181e+002,8.606129e+001
8.331108e+002,8.454988e+001
8.360036e+002,8.193182e+001
8.388964e+002,7.834494e+001
8.417891e+002,7.931551e+001
8.446818e+002,8.374873e+001
8.475746e+002,8.521793e+001
8.504673e+002,8.570567e+001
8.533601e+002,8.557356e+001
8.562528e+002,8.553561e+001
8.591456e+002,8.548504e+001
8.620383e+002,8.528314e+001
8.649311e+002,8.511065e+001
8.678238e+002,8.498444e+001
8.707166e+002,8.488517e+001
8.736093e+002,8.479665e+001
8.765021e+002,8.477635e+001
8.793948e+002,8.463742e+001
8.822875e+002,8.449560e+001
8.851803e+002,8.428246e+001
8.880731e+002,8.418417e+001
8.909658e+002,8.398241e+001
8.938585e+002,8.396291e+001
8.967513e+002,8.377100e+001
8.996440e+002,8.354903e+001
9.025368e+002,8.321702e+001
9.054295e+002,8.265208e+001
9.083223e+002,8.209216e+001
9.112150e+002,8.143939e+001
9.141078e+002,8.066550e+001
9.170005e+002,7.990491e+001
9.198932e+002,7.870108e+001
9.227860e+002,7.720368e+001
9.256788e+002,7.495550e+001
9.285715e+002,7.162060e+001
9.314642e+002,6.776827e+001
9.343570e+002,6.643625e+001
9.372498e+002,6.971542e+001
9.401425e+002,7.297778e+001
9.430352e+002,7.339560e+001
9.459280e+002,7.196612e+001
9.488207e+002,6.916064e+001
9.517134e+002,6.521133e+001
9.546062e+002,6.076318e+001
9.574990e+002,5.595295e+001
9.603917e+002,5.302569e+001
9.632844e+002,5.673944e+001
9.661772e+002,6.476981e+001
9.690699e+002,6.962653e+001
9.719627e+002,7.218864e+001
9.748554e+002,7.406040e+001
9.777482e+002,7.586375e+001
9.806409e+002,7.702531e+001
9.835337e+002,7.735022e+001
9.864265e+002,7.722853e+001
9.893192e+002,7.705604e+001
9.922119e+002,7.685165e+001
9.951047e+002,7.677838e+001
9.979974e+002,7.680292e+001
1.000890e+003,7.653543e+001
1.003783e+003,7.613258e+001
1.006676e+003,7.560078e+001
1.009568e+003,7.493163e+001
1.012461e+003,7.415311e+001
1.015354e+003,7.319811e+001
1.018247e+003,7.207015e+001
1.021139e+003,7.078339e+001
1.024032e+003,6.912183e+001
1.026925e+003,6.706116e+001
1.029818e+003,6.454186e+001
1.032710e+003,6.175796e+001
1.035603e+003,5.803333e+001
1.038496e+003,5.372985e+001
1.041389e+003,4.909673e+001
1.044281e+003,4.553036e+001
1.047174e+003,4.644783e+001
1.050067e+003,5.375472e+001
1.052960e+003,6.162144e+001
1.055852e+003,6.679340e+001
1.058745e+003,6.834573e+001
1.061638e+003,6.639246e+001
1.064531e+003,6.362413e+001
1.067423e+003,6.490343e+001
1.070316e+003,6.945377e+001
1.073209e+003,7.187069e+001
1.076102e+003,7.203355e+001
1.078994e+003,7.068966e+001
1.081887e+003,6.836313e+001
1.084780e+003,6.576978e+001
1.087673e+003,6.309657e+001
1.090565e+003,6.091402e+001
1.093458e+003,5.947469e+001
1.096351e+003,5.876381e+001
1.099244e+003,5.795483e+001
1.102136e+003,5.635868e+001
1.105029e+003,5.387088e+001
1.107922e+003,5.243079e+001
1.110815e+003,5.640481e+001
1.113707e+003,6.329612e+001
1.116600e+003,6.865193e+001
1.119493e+003,7.102576e+001
1.122385e+003,7.058695e+001
1.125278e+003,6.876098e+001
1.128171e+003,6.612951e+001
1.131064e+003,6.299119e+001
1.133957e+003,5.930550e+001
1.136849e+003,5.506388e+001
1.139742e+003,5.027742e+001
1.142635e+003,4.505376e+001
1.145527e+003,3.953778e+001
1.148420e+003,3.399961e+001
1.151313e+003,2.911344e+001
1.154206e+003,2.535863e+001
1.157099e+003,2.279133e+001
1.159991e+003,2.157605e+001
1.162884e+003,2.127862e+001
1.165777e+003,2.168291e+001
1.168669e+003,2.246886e+001
1.171562e+003,2.352557e+001
1.174455e+003,2.482787e+001
1.177348e+003,2.626618e+001
1.180240e+003,2.801884e+001
1.183133e+003,2.947592e+001
1.186026e+003,3.098604e+001
1.188919e+003,3.472621e+001
1.191811e+003,4.110199e+001
1.194704e+003,4.920380e+001
1.197597e+003,5.757578e+001
1.200490e+003,6.411446e+001
1.203382e+003,6.764806e+001
1.206275e+003,6.954021e+001
1.209168e+003,7.052494e+001
1.212061e+003,7.087760e+001
1.214953e+003,7.062755e+001
1.217846e+003,6.992370e+001
1.220739e+003,6.856462e+001
1.223632e+003,6.629673e+001
1.226524e+003,6.235802e+001
1.229417e+003,5.612790e+001
1.232310e+003,4.765208e+001
1.235203e+003,3.963482e+001
1.238095e+003,3.673893e+001
1.240988e+003,3.969120e+001
1.243881e+003,4.532779e+001
1.246774e+003,5.534085e+001
1.249666e+003,6.599183e+001
1.252559e+003,7.194000e+001
1.255452e+003,7.466205e+001
1.258345e+003,7.622527e+001
1.261237e+003,7.736751e+001
1.264130e+003,7.822442e+001
1.267023e+003,7.860098e+001
1.269916e+003,7.841000e+001
1.272808e+003,7.780192e+001
1.275701e+003,7.689629e+001
1.278594e+003,7.577565e+001
1.281487e+003,7.437658e+001
1.284379e+003,7.235296e+001
1.287272e+003,6.843301e+001
1.290165e+003,6.051398e+001
1.293057e+003,5.496748e+001
1.295950e+003,6.002679e+001
1.298843e+003,6.789648e+001
1.301736e+003,7.371438e+001
1.304629e+003,7.682455e+001
1.307521e+003,7.941244e+001
1.310414e+003,8.155981e+001
1.313307e+003,8.297146e+001
1.316200e+003,8.383411e+001
1.319092e+003,8.423888e+001
1.321985e+003,8.427716e+001
1.324878e+003,8.440654e+001
1.327771e+003,8.515358e+001
1.330663e+003,8.612002e+001
1.333556e+003,8.677402e+001
1.336449e+003,8.675735e+001
1.339342e+003,8.610639e+001
1.342234e+003,8.464558e+001
1.345127e+003,8.243649e+001
1.348020e+003,7.941856e+001
1.350912e+003,7.570963e+001
1.353805e+003,7.227483e+001
1.356698e+003,6.930663e+001
1.359591e+003,6.498508e+001
1.362484e+003,6.051009e+001
1.365376e+003,5.885013e+001
1.368269e+003,6.198017e+001
1.371162e+003,6.706599e+001
1.374054e+003,6.978747e+001
1.376947e+003,7.371040e+001
1.379840e+003,7.973907e+001
1.382733e+003,8.351687e+001
1.385625e+003,8.427833e+001
1.388518e+003,8.281243e+001
1.391411e+003,8.012921e+001
1.394304e+003,7.709946e+001
1.397196e+003,7.532324e+001
1.400089e+003,7.843730e+001
1.402982e+003,8.264830e+001
1.405875e+003,8.507890e+001
1.408767e+003,8.416193e+001
1.411660e+003,7.991273e+001
1.414553e+003,7.544366e+001
1.417446e+003,7.414239e+001
1.420338e+003,7.476070e+001
1.423231e+003,8.041813e+001
1.426124e+003,8.555948e+001
1.429017e+003,8.780242e+001
1.431909e+003,8.800050e+001
1.434802e+003,8.707417e+001
1.437695e+003,8.692322e+001
1.440588e+003,8.777102e+001
1.443480e+003,8.835262e+001
1.446373e+003,8.805549e+001
1.449266e+003,8.734653e+001
1.452159e+003,8.621670e+001
1.455051e+003,8.471015e+001
1.457944e+003,8.185309e+001
1.460837e+003,8.067263e+001
1.463730e+003,7.916938e+001
1.466622e+003,7.932949e+001
1.469515e+003,7.547295e+001
1.472408e+003,7.803128e+001
1.475301e+003,8.215961e+001
1.478193e+003,8.315318e+001
1.481086e+003,8.838873e+001
1.483979e+003,9.256413e+001
1.486872e+003,9.456452e+001
1.489764e+003,9.556116e+001
1.492657e+003,9.602799e+001
1.495550e+003,9.645402e+001
1.498443e+003,9.666002e+001
1.501335e+003,9.669999e+001
1.504228e+003,9.682957e+001
1.507121e+003,9.737454e+001
1.510014e+003,9.705866e+001
1.512906e+003,9.702161e+001
1.515799e+003,9.724068e+001
1.518692e+003,9.727272e+001
1.521584e+003,9.746201e+001
1.524477e+003,9.735114e+001
1.527370e+003,9.735981e+001
1.530263e+003,9.731115e+001
1.533156e+003,9.732800e+001
1.536048e+003,9.728958e+001
1.538941e+003,9.753018e+001
1.541834e+003,9.743131e+001
1.544726e+003,9.738151e+001
1.547619e+003,9.723932e+001
1.550512e+003,9.737386e+001
1.553405e+003,9.729227e+001
1.556297e+003,9.731133e+001
1.559190e+003,9.801013e+001
1.562083e+003,9.725779e+001
1.564976e+003,9.728239e+001
1.567869e+003,9.720129e+001
1.570761e+003,9.724808e+001
1.573654e+003,9.712178e+001
1.576547e+003,9.721873e+001
1.579439e+003,9.700372e+001
1.582332e+003,9.695684e+001
1.585225e+003,9.689789e+001
1.588118e+003,9.690977e+001
1.591010e+003,9.678934e+001
1.593903e+003,9.672588e+001
1.596796e+003,9.663531e+001
1.599689e+003,9.653194e+001
1.602581e+003,9.636797e+001
1.605474e+003,9.622887e+001
1.608367e+003,9.608089e+001
1.611260e+003,9.579175e+001
1.614152e+003,9.564976e+001
1.617045e+003,9.576083e+001
1.619938e+003,9.529932e+001
1.622831e+003,9.523990e+001
1.625723e+003,9.487741e+001
1.628616e+003,9.460496e+001
1.631509e+003,9.433887e+001
1.634402e+003,9.428403e+001
1.637294e+003,9.410034e+001
1.640187e+003,9.385224e+001
1.643080e+003,9.373308e+001
1.645973e+003,9.365564e+001
1.648865e+003,9.332133e+001
1.651758e+003,9.299673e+001
1.654651e+003,9.270847e+001
1.657544e+003,9.205935e+001
1.660436e+003,9.150320e+001
1.663329e+003,9.085509e+001
1.666222e+003,8.985777e+001
1.669115e+003,8.892382e+001
1.672007e+003,8.744307e+001
1.674900e+003,8.585917e+001
1.677793e+003,8.366940e+001
1.680686e+003,8.099007e+001
1.683578e+003,7.871203e+001
1.686471e+003,7.606831e+001
1.689364e+003,7.403722e+001
1.692257e+003,7.218789e+001
1.695149e+003,7.027410e+001
1.698042e+003,6.744148e+001
1.700935e+003,6.372073e+001
1.703828e+003,6.030151e+001
1.706720e+003,5.451054e+001
1.709613e+003,4.745371e+001
1.712506e+003,3.782956e+001
1.715399e+003,2.601925e+001
1.718291e+003,1.536082e+001
1.721184e+003,1.279084e+001
1.724077e+003,1.785793e+001
1.726969e+003,2.692824e+001
1.729862e+003,3.440534e+001
1.732755e+003,3.987384e+001
1.735648e+003,4.825630e+001
1.738541e+003,5.546632e+001
1.741433e+003,6.522937e+001
1.744326e+003,7.469745e+001
1.747219e+003,8.201524e+001
1.750111e+003,8.700351e+001
1.753004e+003,9.026836e+001
1.755897e+003,9.179769e+001
1.758790e+003,9.287481e+001
1.761682e+003,9.362685e+001
1.764575e+003,9.397324e+001
1.767468e+003,9.437815e+001
1.770361e+003,9.470478e+001
1.773253e+003,9.525735e+001
1.776146e+003,9.545126e+001
1.779039e+003,9.579948e+001
1.781932e+003,9.612608e+001
1.784824e+003,9.642754e+001
1.787717e+003,9.663581e+001
1.790610e+003,9.688817e+001
1.793503e+003,9.716424e+001
1.796395e+003,9.727667e+001
1.799288e+003,9.755966e+001
1.802181e+003,9.768833e+001
1.805074e+003,9.777045e+001
1.807966e+003,9.791713e+001
1.810859e+003,9.814389e+001
1.813752e+003,9.816868e+001
1.816645e+003,9.836787e+001
1.819537e+003,9.828857e+001
1.822430e+003,9.838125e+001
1.825323e+003,9.852013e+001
1.828216e+003,9.858269e+001
1.831108e+003,9.859009e+001
1.834001e+003,9.853046e+001
1.836894e+003,9.855084e+001
1.839787e+003,9.849133e+001
1.842679e+003,9.864068e+001
1.845572e+003,9.866803e+001
1.848465e+003,9.868113e+001
1.851358e+003,9.875176e+001
1.854250e+003,9.886653e+001
1.857143e+003,9.889191e+001
1.860036e+003,9.883986e+001
1.862929e+003,9.893301e+001
1.865821e+003,9.895747e+001
1.868714e+003,9.896738e+001
1.871607e+003,9.893114e+001
1.874500e+003,9.896198e+001
1.877392e+003,9.893073e+001
1.880285e+003,9.900620e+001
1.883178e+003,9.887229e+001
1.886071e+003,9.892798e+001
1.888963e+003,9.901330e+001
1.891856e+003,9.894651e+001
1.894749e+003,9.886004e+001
1.897642e+003,9.899910e+001
1.900534e+003,9.892039e+001
1.903427e+003,9.894607e+001
1.906320e+003,9.902713e+001
1.909213e+003,9.895258e+001
1.912105e+003,9.885604e+001
1.914998e+003,9.898761e+001
1.917891e+003,9.870065e+001
1.920784e+003,9.887536e+001
1.923676e+003,9.899155e+001
1.926569e+003,9.876896e+001
1.929462e+003,9.895280e+001
1.932354e+003,9.891296e+001
1.935247e+003,9.906837e+001
1.938140e+003,9.908094e+001
1.941033e+003,9.896013e+001
1.943926e+003,9.902272e+001
1.946818e+003,9.902442e+001
1.949711e+003,9.901112e+001
1.952604e+003,9.905968e+001
1.955496e+003,9.902967e+001
1.958389e+003,9.911057e+001
1.961282e+003,9.902827e+001
1.964175e+003,9.890974e+001
1.967068e+003,9.906462e+001
1.969960e+003,9.931182e+001
1.972853e+003,9.908866e+001
1.975746e+003,9.913540e+001
1.978638e+003,9.831513e+001
1.981531e+003,9.872395e+001
1.984424e+003,9.880746e+001
1.987317e+003,9.861156e+001
1.990209e+003,9.904101e+001
1.993102e+003,9.891451e+001
1.995995e+003,9.894215e+001
1.998888e+003,9.882173e+001
2.001780e+003,9.907213e+001
2.004673e+003,9.908661e+001
2.007566e+003,9.873012e+001
2.010459e+003,9.880087e+001
2.013351e+003,9.888321e+001
2.016244e+003,9.912758e+001
2.019137e+003,9.907747e+001
2.022030e+003,9.886214e+001
2.024922e+003,9.885366e+001
2.027815e+003,9.891862e+001
2.030708e+003,9.867354e+001
2.033601e+003,9.863239e+001
2.036493e+003,9.868217e+001
2.039386e+003,9.871084e+001
2.042279e+003,9.859931e+001
2.045172e+003,9.869568e+001
2.048064e+003,9.868743e+001
2.050957e+003,9.870359e+001
2.053850e+003,9.881264e+001
2.056743e+003,9.863013e+001
2.059635e+003,9.883078e+001
2.062528e+003,9.877905e+001
2.065421e+003,9.866443e+001
2.068314e+003,9.882744e+001
2.071206e+003,9.855002e+001
2.074099e+003,9.858450e+001
2.076992e+003,9.860862e+001
2.079885e+003,9.859430e+001
2.082777e+003,9.847665e+001
2.085670e+003,9.858403e+001
2.088563e+003,9.866817e+001
2.091456e+003,9.859050e+001
2.094348e+003,9.864005e+001
2.097241e+003,9.846220e+001
2.100134e+003,9.854305e+001
2.103027e+003,9.863432e+001
2.105919e+003,9.861658e+001
2.108812e+003,9.861357e+001
2.111705e+003,9.858135e+001
2.114598e+003,9.867619e+001
2.117490e+003,9.888269e+001
2.120383e+003,9.890862e+001
2.123276e+003,9.894576e+001
2.126168e+003,9.915919e+001
2.129061e+003,9.932765e+001
2.131954e+003,9.937073e+001
2.134847e+003,9.938799e+001
2.137740e+003,9.931139e+001
2.140632e+003,9.925119e+001
2.143525e+003,9.936461e+001
2.146418e+003,9.938602e+001
2.149311e+003,9.919562e+001
2.152203e+003,9.934039e+001
2.155096e+003,9.939956e+001
2.157989e+003,9.964342e+001
2.160882e+003,9.833052e+001
2.163774e+003,9.858193e+001
2.166667e+003,9.879489e+001
2.169560e+003,9.866720e+001
2.172452e+003,9.892280e+001
2.175345e+003,9.906117e+001
2.178238e+003,9.908117e+001
2.181131e+003,9.896506e+001
2.184023e+003,9.902602e+001
2.186916e+003,9.894828e+001
2.189809e+003,9.877820e+001
2.192702e+003,9.903671e+001
2.195594e+003,9.919773e+001
2.198487e+003,9.890906e+001
2.201380e+003,9.894997e+001
2.204273e+003,9.913322e+001
2.207166e+003,9.891672e+001
2.210058e+003,9.884348e+001
2.212951e+003,9.911180e+001
2.215844e+003,9.897318e+001
2.218736e+003,9.899966e+001
2.221629e+003,9.897370e+001
2.224522e+003,9.905703e+001
2.227415e+003,9.907320e+001
2.230307e+003,9.887717e+001
2.233200e+003,9.908146e+001
2.236093e+003,9.884840e+001
2.238986e+003,9.888969e+001
2.241878e+003,9.904534e+001
2.244771e+003,9.887134e+001
2.247664e+003,9.911462e+001
2.250557e+003,9.906562e+001
2.253449e+003,9.904861e+001
2.256342e+003,9.900472e+001
2.259235e+003,9.905110e+001
2.262128e+003,9.895590e+001
2.265020e+003,9.898057e+001
2.267913e+003,9.895790e+001
2.270806e+003,9.897746e+001
2.273699e+003,9.890970e+001
2.276591e+003,9.888947e+001
2.279484e+003,9.890427e+001
2.282377e+003,9.874632e+001
2.285270e+003,9.868800e+001
2.288162e+003,9.867816e+001
2.291055e+003,9.868503e+001
2.293948e+003,9.886655e+001
2.296841e+003,9.865762e+001
2.299733e+003,9.880671e+001
2.302626e+003,9.873386e+001
2.305519e+003,9.866978e+001
2.308412e+003,9.862310e+001
2.311304e+003,9.865689e+001
2.314197e+003,9.867732e+001
2.317090e+003,9.843430e+001
2.319983e+003,9.837605e+001
2.322875e+003,9.805495e+001
2.325768e+003,9.841869e+001
2.328661e+003,9.862397e+001
2.331553e+003,9.853403e+001
2.334446e+003,9.839513e+001
2.337339e+003,9.841163e+001
2.340232e+003,9.853991e+001
2.343125e+003,9.838199e+001
2.346017e+003,9.850584e+001
2.348910e+003,9.849612e+001
2.351803e+003,9.856429e+001
2.354696e+003,9.850866e+001
2.357588e+003,9.851146e+001
2.360481e+003,9.854219e+001
2.363374e+003,9.869159e+001
2.366267e+003,9.867708e+001
2.369159e+003,9.879702e+001
2.372052e+003,9.892233e+001
2.374945e+003,9.899811e+001
2.377837e+003,9.915588e+001
2.380730e+003,9.907179e+001
2.383623e+003,9.919283e+001
2.386516e+003,9.919152e+001
2.389408e+003,9.923653e+001
2.392301e+003,9.921347e+001
2.395194e+003,9.916630e+001
2.398087e+003,9.911484e+001
2.400979e+003,9.912551e+001
2.403872e+003,9.917792e+001
2.406765e+003,9.908517e+001
2.409658e+003,9.895078e+001
2.412551e+003,9.903970e+001
2.415443e+003,9.903529e+001
2.418336e+003,9.905618e+001
2.421229e+003,9.899965e+001
2.424121e+003,9.911275e+001
2.427014e+003,9.912303e+001
2.429907e+003,9.920519e+001
2.432800e+003,9.907603e+001
2.435692e+003,9.916347e+001
2.438585e+003,9.915608e+001
2.441478e+003,9.910739e+001
2.444371e+003,9.914605e+001
2.447263e+003,9.916827e+001
2.450156e+003,9.915367e+001
2.453049e+003,9.910242e+001
2.455942e+003,9.910672e+001
2.458834e+003,9.918237e+001
2.461727e+003,9.913321e+001
2.464620e+003,9.920979e+001
2.467513e+003,9.910593e+001
2.470405e+003,9.903891e+001
2.473298e+003,9.913950e+001
2.476191e+003,9.908125e+001
2.479084e+003,9.914481e+001
2.481976e+003,9.912025e+001
2.484869e+003,9.914565e+001
2.487762e+003,9.911002e+001
2.490655e+003,9.913462e+001
2.493547e+003,9.913334e+001
2.496440e+003,9.913327e+001
2.499333e+003,9.911500e+001
2.502226e+003,9.913863e+001
2.505118e+003,9.919934e+001
2.508011e+003,9.921828e+001
2.510904e+003,9.918273e+001
2.513797e+003,9.905234e+001
2.516689e+003,9.912679e+001
2.519582e+003,9.911723e+001
2.522475e+003,9.903617e+001
2.525368e+003,9.902361e+001
2.528260e+003,9.904874e+001
2.531153e+003,9.900588e+001
2.534046e+003,9.901302e+001
2.536938e+003,9.898518e+001
2.539831e+003,9.892150e+001
2.542724e+003,9.897134e+001
2.545617e+003,9.905692e+001
2.548510e+003,9.906688e+001
2.551402e+003,9.909084e+001
2.554295e+003,9.909765e+001
2.557188e+003,9.912512e+001
2.560081e+003,9.900424e+001
2.562973e+003,9.902940e+001
2.565866e+003,9.893956e+001
2.568759e+003,9.898787e+001
2.571652e+003,9.890060e+001
2.574544e+003,9.895094e+001
2.577437e+003,9.892023e+001
2.580330e+003,9.889688e+001
2.583222e+003,9.894138e+001
2.586115e+003,9.900110e+001
2.589008e+003,9.901768e+001
2.591901e+003,9.898538e+001
2.594793e+003,9.896624e+001
2.597686e+003,9.890753e+001
2.600579e+003,9.894794e+001
2.603472e+003,9.891305e+001
2.606365e+003,9.894782e+001
2.609257e+003,9.888422e+001
2.612150e+003,9.892559e+001
2.615043e+003,9.887198e+001
2.617936e+003,9.888284e+001
2.620828e+003,9.884573e+001
2.623721e+003,9.891284e+001
2.626614e+003,9.879228e+001
2.629506e+003,9.875945e+001
2.632399e+003,9.875566e+001
2.635292e+003,9.870584e+001
2.638185e+003,9.870193e+001
2.641077e+003,9.865429e+001
2.643970e+003,9.863904e+001
2.646863e+003,9.863788e+001
2.649756e+003,9.861304e+001
2.652648e+003,9.859878e+001
2.655541e+003,9.866882e+001
2.658434e+003,9.866572e+001
2.661327e+003,9.872624e+001
2.664219e+003,9.869117e+001
2.667112e+003,9.876387e+001
2.670005e+003,9.872488e+001
2.672898e+003,9.876680e+001
2.675790e+003,9.872073e+001
2.678683e+003,9.873058e+001
2.681576e+003,9.868048e+001
2.684469e+003,9.868898e+001
2.687361e+003,9.868414e+001
2.690254e+003,9.866595e+001
2.693147e+003,9.869681e+001
2.696040e+003,9.870963e+001
2.698932e+003,9.867123e+001
2.701825e+003,9.868272e+001
2.704718e+003,9.869465e+001
2.707611e+003,9.854893e+001
2.710503e+003,9.868059e+001
2.713396e+003,9.857639e+001
2.716289e+003,9.860686e+001
2.719182e+003,9.860866e+001
2.722074e+003,9.859183e+001
2.724967e+003,9.860876e+001
2.727860e+003,9.859071e+001
2.730753e+003,9.859254e+001
2.733645e+003,9.856991e+001
2.736538e+003,9.856824e+001
2.739431e+003,9.852997e+001
2.742323e+003,9.852370e+001
2.745216e+003,9.847206e+001
2.748109e+003,9.841238e+001
2.751002e+003,9.846057e+001
2.753895e+003,9.843619e+001
2.756787e+003,9.836913e+001
2.759680e+003,9.840259e+001
2.762573e+003,9.835014e+001
2.765466e+003,9.836356e+001
2.768358e+003,9.821452e+001
2.771251e+003,9.828852e+001
2.774144e+003,9.821209e+001
2.777037e+003,9.820929e+001
2.779929e+003,9.816891e+001
2.782822e+003,9.811467e+001
2.785715e+003,9.812845e+001
2.788607e+003,9.812496e+001
2.791500e+003,9.804672e+001
2.794393e+003,9.800337e+001
2.797286e+003,9.792871e+001
2.800178e+003,9.776697e+001
2.803071e+003,9.778992e+001
2.805964e+003,9.768920e+001
2.808857e+003,9.750688e+001
2.811750e+003,9.734163e+001
2.814642e+003,9.713235e+001
2.817535e+003,9.691714e+001
2.820428e+003,9.678371e+001
2.823321e+003,9.648150e+001
2.826213e+003,9.628209e+001
2.829106e+003,9.609647e+001
2.831999e+003,9.579292e+001
2.834891e+003,9.544995e+001
2.837784e+003,9.490652e+001
2.840677e+003,9.410838e+001
2.843570e+003,9.313691e+001
2.846462e+003,9.173227e+001
2.849355e+003,8.995769e+001
2.852248e+003,8.778960e+001
2.855141e+003,8.548218e+001
2.858033e+003,8.305624e+001
2.860926e+003,8.087233e+001
2.863819e+003,7.943708e+001
2.866712e+003,7.941792e+001
2.869604e+003,8.075397e+001
2.872497e+003,8.308693e+001
2.875390e+003,8.552129e+001
2.878283e+003,8.718307e+001
2.881175e+003,8.810175e+001
2.884068e+003,8.820960e+001
2.886961e+003,8.752094e+001
2.889854e+003,8.588331e+001
2.892746e+003,8.420439e+001
2.895639e+003,8.378002e+001
2.898532e+003,8.441954e+001
2.901425e+003,8.445193e+001
2.904317e+003,8.385352e+001
2.907210e+003,8.287754e+001
2.910103e+003,8.192808e+001
2.912996e+003,8.114449e+001
2.915888e+003,8.012651e+001
2.918781e+003,7.877847e+001
2.921674e+003,7.723096e+001
2.924567e+003,7.592188e+001
2.927459e+003,7.488159e+001
2.930352e+003,7.391006e+001
2.933245e+003,7.244667e+001
2.936137e+003,7.138469e+001
2.939030e+003,7.080167e+001
2.941923e+003,7.034248e+001
2.944816e+003,7.019092e+001
2.947708e+003,7.092699e+001
2.950601e+003,7.249240e+001
2.953494e+003,7.402138e+001
2.956387e+003,7.563253e+001
2.959280e+003,7.814797e+001
2.962172e+003,8.105647e+001
2.965065e+003,8.345951e+001
2.967958e+003,8.570077e+001
2.970851e+003,8.782592e+001
2.973743e+003,8.992909e+001
2.976636e+003,9.153786e+001
2.979529e+003,9.289135e+001
2.982422e+003,9.395454e+001
2.985314e+003,9.483862e+001
2.988207e+003,9.556902e+001
2.991100e+003,9.619006e+001
2.993992e+003,9.666819e+001
2.996885e+003,9.696626e+001
2.999778e+003,9.729577e+001
3.002671e+003,9.756828e+001
3.005563e+003,9.778642e+001
3.008456e+003,9.804978e+001
3.011349e+003,9.814178e+001
3.014242e+003,9.815331e+001
3.017135e+003,9.828011e+001
3.020027e+003,9.831507e+001
3.022920e+003,9.838552e+001
3.025813e+003,9.840672e+001
3.028706e+003,9.849496e+001
3.031598e+003,9.845940e+001
3.034491e+003,9.859448e+001
3.037384e+003,9.856531e+001
3.040276e+003,9.869275e+001
3.043169e+003,9.853503e+001
3.046062e+003,9.860915e+001
3.048955e+003,9.875256e+001
3.051847e+003,9.871404e+001
3.054740e+003,9.866600e+001
3.057633e+003,9.868130e+001
3.060526e+003,9.868009e+001
3.063418e+003,9.875640e+001
3.066311e+003,9.872263e+001
3.069204e+003,9.878797e+001
3.072097e+003,9.874899e+001
3.074990e+003,9.878154e+001
3.077882e+003,9.876756e+001
3.080775e+003,9.885242e+001
3.083668e+003,9.880386e+001
3.086560e+003,9.877241e+001
3.089453e+003,9.887693e+001
3.092346e+003,9.884238e+001
3.095239e+003,9.886359e+001
3.098131e+003,9.895517e+001
3.101024e+003,9.885295e+001
3.103917e+003,9.893593e+001
3.106810e+003,9.881263e+001
3.109702e+003,9.886700e+001
3.112595e+003,9.890161e+001
3.115488e+003,9.890455e+001
3.118381e+003,9.893975e+001
3.121273e+003,9.888271e+001
3.124166e+003,9.886629e+001
3.127059e+003,9.888831e+001
3.129952e+003,9.893160e+001
3.132844e+003,9.888525e+001
3.135737e+003,9.889955e+001
3.138630e+003,9.890114e+001
3.141522e+003,9.896707e+001
3.144415e+003,9.896326e+001
3.147308e+003,9.892296e+001
3.150201e+003,9.903268e+001
3.153094e+003,9.888656e+001
3.155986e+003,9.898450e+001
3.158879e+003,9.896658e+001
3.161772e+003,9.904421e+001
3.164665e+003,9.898329e+001
3.167557e+003,9.906824e+001
3.170450e+003,9.896427e+001
3.173343e+003,9.906564e+001
3.176236e+003,9.886930e+001
3.179128e+003,9.898547e+001
3.182021e+003,9.896786e+001
3.184914e+003,9.895345e+001
3.187806e+003,9.904636e+001
3.190699e+003,9.901868e+001
3.193592e+003,9.896500e+001
3.196485e+003,9.901316e+001
3.199377e+003,9.900204e+001
3.202270e+003,9.899342e+001
3.205163e+003,9.901588e+001
3.208056e+003,9.898378e+001
3.210948e+003,9.895681e+001
3.213841e+003,9.903345e+001
3.216734e+003,9.906803e+001
3.219627e+003,9.896816e+001
3.222520e+003,9.895479e+001
3.225412e+003,9.901841e+001
3.228305e+003,9.901917e+001
3.231198e+003,9.897721e+001
3.234091e+003,9.901034e+001
3.236983e+003,9.905490e+001
3.239876e+003,9.898068e+001
3.242769e+003,9.905543e+001
3.245661e+003,9.902977e+001
3.248554e+003,9.915500e+001
3.251447e+003,9.894765e+001
3.254340e+003,9.897411e+001
3.257232e+003,9.899179e+001
3.260125e+003,9.911194e+001
3.263018e+003,9.913469e+001
3.265911e+003,9.899350e+001
3.268803e+003,9.905904e+001
3.271696e+003,9.901977e+001
3.274589e+003,9.907204e+001
3.277482e+003,9.884329e+001
3.280375e+003,9.903132e+001
3.283267e+003,9.895226e+001
3.286160e+003,9.896406e+001
3.289053e+003,9.893102e+001
3.291945e+003,9.901329e+001
3.294838e+003,9.894983e+001
3.297731e+003,9.893093e+001
3.300624e+003,9.903511e+001
3.303516e+003,9.903062e+001
3.306409e+003,9.901351e+001
3.309302e+003,9.895708e+001
3.312195e+003,9.911305e+001
3.315087e+003,9.898170e+001
3.317980e+003,9.896250e+001
3.320873e+003,9.898236e+001
3.323766e+003,9.900668e+001
3.326658e+003,9.908031e+001
3.329551e+003,9.900668e+001
3.332444e+003,9.904944e+001
3.335337e+003,9.899509e+001
3.338229e+003,9.905334e+001
3.341122e+003,9.902053e+001
3.344015e+003,9.893707e+001
3.346907e+003,9.903848e+001
3.349800e+003,9.895392e+001
3.352693e+003,9.900838e+001
3.355586e+003,9.904013e+001
3.358479e+003,9.898080e+001
3.361371e+003,9.904602e+001
3.364264e+003,9.905029e+001
3.367157e+003,9.905255e+001
3.370050e+003,9.903487e+001
3.372942e+003,9.907655e+001
3.375835e+003,9.905595e+001
3.378728e+003,9.915225e+001
3.381621e+003,9.911678e+001
3.384513e+003,9.904874e+001
3.387406e+003,9.909926e+001
3.390299e+003,9.895401e+001
3.393191e+003,9.905758e+001
3.396084e+003,9.900345e+001
3.398977e+003,9.902472e+001
3.401870e+003,9.897501e+001
3.404762e+003,9.905994e+001
3.407655e+003,9.895699e+001
3.410548e+003,9.902565e+001
3.413441e+003,9.883484e+001
3.416333e+003,9.885279e+001
3.419226e+003,9.879636e+001
3.422119e+003,9.881676e+001
3.425012e+003,9.853491e+001
3.427905e+003,9.861190e+001
3.430797e+003,9.838596e+001
3.433690e+003,9.818498e+001
3.436583e+003,9.814274e+001
3.439475e+003,9.820378e+001
3.442368e+003,9.830664e+001
3.445261e+003,9.822979e+001
3.448154e+003,9.832006e+001
3.451046e+003,9.838403e+001
3.453939e+003,9.844131e+001
3.456832e+003,9.860205e+001
3.459725e+003,9.865815e+001
3.462617e+003,9.864555e+001
3.465510e+003,9.887560e+001
3.468403e+003,9.874391e+001
3.471296e+003,9.892387e+001
3.474188e+003,9.900827e+001
3.477081e+003,9.897120e+001
3.479974e+003,9.891970e+001
3.482867e+003,9.906677e+001
3.485760e+003,9.897757e+001
3.488652e+003,9.912882e+001
3.491545e+003,9.914780e+001
3.494438e+003,9.889579e+001
3.497330e+003,9.897527e+001
3.500223e+003,9.904158e+001
3.503116e+003,9.908877e+001
3.506009e+003,9.911485e+001
3.508901e+003,9.909993e+001
3.511794e+003,9.904626e+001
3.514687e+003,9.909318e+001
3.517580e+003,9.906092e+001
3.520472e+003,9.918155e+001
3.523365e+003,9.911596e+001
3.526258e+003,9.909117e+001
3.529151e+003,9.899672e+001
3.532043e+003,9.902341e+001
3.534936e+003,9.919142e+001
3.537829e+003,9.911965e+001
3.540722e+003,9.906322e+001
3.543614e+003,9.904350e+001
3.546507e+003,9.896294e+001
3.549400e+003,9.904826e+001
3.552292e+003,9.921322e+001
3.555185e+003,9.914758e+001
3.558078e+003,9.915131e+001
3.560971e+003,9.912413e+001
3.563864e+003,9.918469e+001
3.566756e+003,9.956397e+001
3.569649e+003,9.921511e+001
3.572542e+003,9.919480e+001
3.575435e+003,9.941344e+001
3.578327e+003,9.936263e+001
3.581220e+003,9.942865e+001
3.584113e+003,9.936151e+001
3.587006e+003,9.965519e+001
3.589898e+003,9.933125e+001
3.592791e+003,9.930752e+001
3.595684e+003,9.950855e+001
3.598576e+003,9.935609e+001
3.601469e+003,9.929498e+001
3.604362e+003,9.925884e+001
3.607255e+003,9.930118e+001
3.610147e+003,9.935193e+001
3.613040e+003,9.945837e+001
3.615933e+003,9.944048e+001
3.618826e+003,9.954410e+001
3.621719e+003,9.929901e+001
3.624611e+003,9.940767e+001
3.627504e+003,9.947216e+001
3.630397e+003,9.946892e+001
3.633290e+003,9.924279e+001
3.636182e+003,9.925587e+001
3.639075e+003,9.935691e+001
3.641968e+003,9.948347e+001
3.644860e+003,9.952698e+001
3.647753e+003,9.977814e+001
3.650646e+003,9.942199e+001
3.653539e+003,9.947183e+001
3.656431e+003,9.961040e+001
3.659324e+003,9.946904e+001
3.662217e+003,9.956590e+001
3.665110e+003,9.961063e+001
3.668002e+003,9.938996e+001
3.670895e+003,9.963138e+001
3.673788e+003,9.954980e+001
3.676681e+003,9.952203e+001
3.679573e+003,9.947316e+001
3.682466e+003,9.954722e+001
3.685359e+003,9.945812e+001
3.688252e+003,9.969598e+001
3.691145e+003,9.981904e+001
3.694037e+003,9.973454e+001
3.696930e+003,9.958511e+001
3.699823e+003,9.955326e+001
3.702715e+003,9.955913e+001
3.705608e+003,9.951337e+001
3.708501e+003,9.967963e+001
3.711394e+003,9.962628e+001
3.714286e+003,9.950708e+001
3.717179e+003,9.978188e+001
3.720072e+003,9.960740e+001
3.722965e+003,9.958392e+001
3.725857e+003,9.956634e+001
3.728750e+003,9.956544e+001
3.731643e+003,9.966252e+001
3.734536e+003,9.940723e+001
3.737428e+003,9.961854e+001
3.740321e+003,9.969205e+001
3.743214e+003,9.963392e+001
3.746107e+003,9.967100e+001
3.748999e+003,9.964404e+001
3.751892e+003,9.999833e+001
3.754785e+003,9.951231e+001
3.757677e+003,9.956303e+001
3.760570e+003,9.960635e+001
3.763463e+003,9.947195e+001
3.766356e+003,9.954828e+001
3.769249e+003,9.967867e+001
3.772141e+003,9.959057e+001
3.775034e+003,9.953535e+001
3.777927e+003,9.969922e+001
3.780820e+003,9.949549e+001
3.783712e+003,9.962637e+001
3.786605e+003,9.956750e+001
3.789498e+003,9.964818e+001
3.792391e+003,9.958042e+001
3.795283e+003,9.955181e+001
3.798176e+003,9.958160e+001
3.801069e+003,9.958073e+001
3.803961e+003,9.961138e+001
3.806854e+003,9.999182e+001
3.809747e+003,9.955585e+001
3.812640e+003,9.959961e+001
3.815532e+003,1.001169e+002
3.818425e+003,9.973658e+001
3.821318e+003,9.980042e+001
3.824211e+003,9.962786e+001
3.827104e+003,9.967056e+001
3.829996e+003,9.961243e+001
3.832889e+003,9.972456e+001
3.835782e+003,9.946646e+001
3.838675e+003,9.974901e+001
3.841567e+003,9.957301e+001
3.844460e+003,9.955517e+001
3.847353e+003,9.959037e+001
3.850245e+003,9.956584e+001
3.853138e+003,1.002341e+002
3.856031e+003,9.959402e+001
3.858924e+003,9.963641e+001
3.861816e+003,9.959379e+001
3.864709e+003,9.990601e+001
3.867602e+003,9.968612e+001
3.870495e+003,9.972914e+001
3.873387e+003,9.960364e+001
3.876280e+003,9.948871e+001
3.879173e+003,9.957410e+001
3.882066e+003,9.954939e+001
3.884958e+003,9.966600e+001
3.887851e+003,9.957394e+001
3.890744e+003,9.962041e+001
3.893637e+003,9.953598e+001
3.896529e+003,9.945437e+001
3.899422e+003,9.955840e+001
3.902315e+003,9.940217e+001
3.905208e+003,9.983395e+001
3.908100e+003,9.948525e+001
3.910993e+003,9.955624e+001
3.913886e+003,9.959205e+001
3.916779e+003,9.955739e+001
3.919671e+003,9.954543e+001
3.922564e+003,9.961753e+001
3.925457e+003,9.962981e+001
3.928350e+003,9.957438e+001
3.931242e+003,9.958221e+001
3.934135e+003,9.952508e+001
3.937028e+003,9.945885e+001
3.939921e+003,9.960262e+001
3.942813e+003,9.961981e+001
3.945706e+003,9.947252e+001
3.948599e+003,9.957985e+001
3.951492e+003,9.958971e+001
3.954384e+003,9.970330e+001
3.957277e+003,9.953120e+001
3.960170e+003,9.940062e+001
3.963063e+003,9.954366e+001
3.965955e+003,9.949209e+001
3.968848e+003,9.955768e+001
3.971741e+003,9.947043e+001
3.974634e+003,9.950752e+001
3.977526e+003,9.956606e+001
3.980419e+003,9.936641e+001
3.983312e+003,9.954627e+001
3.986205e+003,9.958502e+001
3.989097e+003,9.963731e+001
3.991990e+003,9.957127e+001
3.994883e+003,9.961259e+001
3.997776e+003,9.945816e+001
4.000668e+003,0.000000e+000