File: FTIR Data (PCL)/All Data/PCL_NaOH_PDA_2_1.CSV
3.991989e+002,0.000000e+000
4.020916e+002,0.000000e+000
4.049844e+002,0.000000e+000
4.078771e+002,0.000000e+000
4.107699e+002,0.000000e+000
4.136626e+002,0.000000e+000
4.165554e+002,0.000000e+000
4.194481e+002,0.000000e+000
4.223409e+002,0.000000e+000
4.252336e+002,0.000000e+000
4.281263e+002,0.000000e+000
4.310191e+002,0.000000e+000
4.339118e+002,0.000000e+000
4.368046e+002,0.000000e+000
4.396973e+002,0.000000e+000
4.425901e+002,0.000000e+000
4.454828e+002,0.000000e+000
4.483756e+002,0.000000e+000
4.512683e+002,0.000000e+000
4.541611e+002,0.000000e+000
4.570538e+002,0.000000e+000
4.599466e+002,0.000000e+000
4.628393e+002,0.000000e+000
4.657321e+002,0.000000e+000
4.686248e+002,0.000000e+000
4.715175e+002,0.000000e+000
4.744103e+002,0.000000e+000
4.773030e+002,0.000000e+000
4.801958e+002,0.000000e+000
4.830885e+002,0.000000e+000
4.859813e+002,0.000000e+000
4.888740e+002,0.000000e+000
4.917668e+002,0.000000e+000
4.946595e+002,0.000000e+000
4.975523e+002,0.000000e+000
5.004450e+002,0.000000e+000
5.033378e+002,0.000000e+000
5.062305e+002,0.000000e+000
5.091233e+002,0.000000e+000
5.120160e+002,0.000000e+000
5.149088e+002,0.000000e+000
5.178015e+002,0.000000e+000
5.206942e+002,0.000000e+000
5.235870e+002,0.000000e+000
5.264797e+002,0.000000e+000
5.293725e+002,0.000000e+000
5.322652e+002,0.000000e+000
5.351580e+002,0.000000e+000
5.380507e+002,0.000000e+000
5.409435e+002,0.000000e+000
5.438362e+002,0.000000e+000
5.467289e+002,0.000000e+000
5.496217e+002,8.209970e+001
5.525145e+002,8.353616e+001
5.554072e+002,8.627661e+001
5.582999e+002,8.390250e+001
5.611927e+002,8.363572e+001
5.640854e+002,8.235079e+001
5.669782e+002,8.042332e+001
5.698709e+002,8.130048e+001
5.727637e+002,7.977613e+001
5.756564e+002,7.554753e+001
5.785492e+002,7.693832e+001
5.814419e+002,7.757859e+001
5.843347e+002,7.617019e+001
5.872274e+002,7.819809e+001
5.901202e+002,8.016919e+001
5.930129e+002,8.084840e+001
5.959056e+002,8.284689e+001
5.987984e+002,8.350249e+001
6.016912e+002,8.313335e+001
6.045839e+002,8.343747e+001
6.074766e+002,8.380647e+001
6.103694e+002,8.447580e+001
6.132621e+002,8.420023e+001
6.161548e+002,8.417421e+001
6.190476e+002,8.484270e+001
6.219404e+002,8.525722e+001
6.248331e+002,8.517320e+001
6.277258e+002,8.505327e+001
6.306186e+002,8.405601e+001
6.335114e+002,8.497990e+001
6.364041e+002,8.511610e+001
6.392968e+002,8.419898e+001
6.421896e+002,8.437106e+001
6.450823e+002,8.434003e+001
6.479751e+002,8.406932e+001
6.508679e+002,8.414088e+001
6.537606e+002,8.434531e+001
6.566533e+002,8.426604e+001
6.595461e+002,8.432378e+001
6.624388e+002,8.444792e+001
6.653315e+002,8.464309e+001
6.682243e+002,7.940269e+001
6.711171e+002,8.397349e+001
6.740098e+002,8.385057e+001
6.769025e+002,8.341194e+001
6.797953e+002,8.324194e+001
6.826880e+002,8.274477e+001
6.855808e+002,8.233204e+001
6.884735e+002,8.174213e+001
6.913663e+002,8.115499e+001
6.942590e+002,8.018954e+001
6.971518e+002,7.916182e+001
7.000445e+002,7.777221e+001
7.029373e+002,7.614465e+001
7.058300e+002,7.402541e+001
7.087228e+002,7.267509e+001
7.116155e+002,7.326867e+001
7.145082e+002,7.486746e+001
7.174010e+002,7.557124e+001
7.202938e+002,7.416898e+001
7.231865e+002,6.980428e+001
7.260792e+002,6.279638e+001
7.289720e+002,6.047708e+001
7.318647e+002,5.808719e+001
7.347575e+002,6.469506e+001
7.376502e+002,7.201252e+001
7.405430e+002,7.695141e+001
7.434357e+002,8.079092e+001
7.463285e+002,8.316437e+001
7.492212e+002,8.440545e+001
7.521140e+002,8.536602e+001
7.550067e+002,8.609407e+001
7.578995e+002,8.650555e+001
7.607922e+002,8.667613e+001
7.636849e+002,8.627280e+001
7.665777e+002,8.551498e+001
7.694705e+002,8.469402e+001
7.723632e+002,8.411115e+001
7.752559e+002,8.444989e+001
7.781487e+002,8.538067e+001
7.810414e+002,8.602444e+001
7.839341e+002,8.636597e+001
7.868269e+002,8.656592e+001
7.897197e+002,8.660518e+001
7.926124e+002,8.672031e+001
7.955051e+002,8.663582e+001
7.983979e+002,8.656816e+001
8.012906e+002,8.643127e+001
8.041834e+002,8.645050e+001
8.070761e+002,8.635855e+001
8.099689e+002,8.632285e+001
8.128616e+002,8.643349e+001
8.157544e+002,8.635457e+001
8.186472e+002,8.635224e+001
8.215399e+002,8.625426e+001
8.244326e+002,8.593842e+001
8.273254e+002,8.571979e+001
8.302181e+002,8.493134e+001
8.331108e+002,8.371992e+001
8.360036e+002,8.173299e+001
8.388964e+002,7.852220e+001
8.417891e+002,7.939854e+001
8.446818e+002,8.325719e+001
8.475746e+002,8.439213e+001
8.504673e+002,8.474704e+001
8.533601e+002,8.461905e+001
8.562528e+002,8.448986e+001
8.591456e+002,8.455426e+001
8.620383e+002,8.434368e+001
8.649311e+002,8.422184e+001
8.678238e+002,8.404350e+001
8.707166e+002,8.395251e+001
8.736093e+002,8.392150e+001
8.765021e+002,8.389132e+001
8.793948e+002,8.371865e+001
8.822875e+002,8.368433e+001
8.851803e+002,8.349753e+001
8.880731e+002,8.332220e+001
8.909658e+002,8.325679e+001
8.938585e+002,8.322295e+001
8.967513e+002,8.304074e+001
8.996440e+002,8.283087e+001
9.025368e+002,8.251537e+001
9.054295e+002,8.206078e+001
9.083223e+002,8.157690e+001
9.112150e+002,8.098446e+001
9.141078e+002,8.028119e+001
9.170005e+002,7.962128e+001
9.198932e+002,7.864128e+001
9.227860e+002,7.727850e+001
9.256788e+002,7.527429e+001
9.285715e+002,7.247301e+001
9.314642e+002,6.911190e+001
9.343570e+002,6.791926e+001
9.372498e+002,7.096117e+001
9.401425e+002,7.374575e+001
9.430352e+002,7.391394e+001
9.459280e+002,7.266441e+001
9.488207e+002,7.015697e+001
9.517134e+002,6.661956e+001
9.546062e+002,6.267421e+001
9.574990e+002,5.838222e+001
9.603917e+002,5.576242e+001
9.632844e+002,5.915014e+001
9.661772e+002,6.647212e+001
9.690699e+002,7.081734e+001
9.719627e+002,7.306956e+001
9.748554e+002,7.464963e+001
9.777482e+002,7.617652e+001
9.806409e+002,7.705212e+001
9.835337e+002,7.722158e+001
9.864265e+002,7.705058e+001
9.893192e+002,7.680952e+001
9.922119e+002,7.661685e+001
9.951047e+002,7.656293e+001
9.979974e+002,7.651566e+001
1.000890e+003,7.625771e+001
1.003783e+003,7.591949e+001
1.006676e+003,7.540313e+001
1.009568e+003,7.476849e+001
1.012461e+003,7.404176e+001
1.015354e+003,7.321593e+001
1.018247e+003,7.219093e+001
1.021139e+003,7.102158e+001
1.024032e+003,6.946936e+001
1.026925e+003,6.759737e+001
1.029818e+003,6.529507e+001
1.032710e+003,6.280229e+001
1.035603e+003,5.937914e+001
1.038496e+003,5.555312e+001
1.041389e+003,5.147489e+001
1.044281e+003,4.842920e+001
1.047174e+003,4.959705e+001
1.050067e+003,5.685688e+001
1.052960e+003,6.406696e+001
1.055852e+003,6.820676e+001
1.058745e+003,6.915201e+001
1.061638e+003,6.720324e+001
1.064531e+003,6.467903e+001
1.067423e+003,6.586664e+001
1.070316e+003,6.996614e+001
1.073209e+003,7.197976e+001
1.076102e+003,7.202318e+001
1.078994e+003,7.077019e+001
1.081887e+003,6.871980e+001
1.084780e+003,6.635688e+001
1.087673e+003,6.394883e+001
1.090565e+003,6.211713e+001
1.093458e+003,6.085846e+001
1.096351e+003,6.027052e+001
1.099244e+003,5.962840e+001
1.102136e+003,5.830901e+001
1.105029e+003,5.613940e+001
1.107922e+003,5.504910e+001
1.110815e+003,5.872353e+001
1.113707e+003,6.469447e+001
1.116600e+003,6.916987e+001
1.119493e+003,7.107660e+001
1.122385e+003,7.058713e+001
1.125278e+003,6.882700e+001
1.128171e+003,6.649089e+001
1.131064e+003,6.363300e+001
1.133957e+003,6.035625e+001
1.136849e+003,5.655189e+001
1.139742e+003,5.231276e+001
1.142635e+003,4.760850e+001
1.145527e+003,4.269543e+001
1.148420e+003,3.781287e+001
1.151313e+003,3.364165e+001
1.154206e+003,3.054154e+001
1.157099e+003,2.857173e+001
1.159991e+003,2.770743e+001
1.162884e+003,2.771136e+001
1.165777e+003,2.832594e+001
1.168669e+003,2.922697e+001
1.171562e+003,3.025392e+001
1.174455e+003,3.130675e+001
1.177348e+003,3.243205e+001
1.180240e+003,3.387215e+001
1.183133e+003,3.504139e+001
1.186026e+003,3.603952e+001
1.188919e+003,3.887264e+001
1.191811e+003,4.413834e+001
1.194704e+003,5.128301e+001
1.197597e+003,5.931618e+001
1.200490e+003,6.572326e+001
1.203382e+003,6.905756e+001
1.206275e+003,7.073834e+001
1.209168e+003,7.155533e+001
1.212061e+003,7.178894e+001
1.214953e+003,7.144691e+001
1.217846e+003,7.073329e+001
1.220739e+003,6.943767e+001
1.223632e+003,6.731497e+001
1.226524e+003,6.384197e+001
1.229417e+003,5.847143e+001
1.232310e+003,5.131938e+001
1.235203e+003,4.449241e+001
1.238095e+003,4.182278e+001
1.240988e+003,4.404076e+001
1.243881e+003,4.853435e+001
1.246774e+003,5.710240e+001
1.249666e+003,6.687531e+001
1.252559e+003,7.247341e+001
1.255452e+003,7.497754e+001
1.258345e+003,7.635873e+001
1.261237e+003,7.734725e+001
1.264130e+003,7.798162e+001
1.267023e+003,7.820512e+001
1.269916e+003,7.803923e+001
1.272808e+003,7.746094e+001
1.275701e+003,7.658002e+001
1.278594e+003,7.561971e+001
1.281487e+003,7.440121e+001
1.284379e+003,7.264746e+001
1.287272e+003,6.922977e+001
1.290165e+003,6.238885e+001
1.293057e+003,5.737721e+001
1.295950e+003,6.174720e+001
1.298843e+003,6.894387e+001
1.301736e+003,7.430212e+001
1.304629e+003,7.701514e+001
1.307521e+003,7.935275e+001
1.310414e+003,8.123618e+001
1.313307e+003,8.243643e+001
1.316200e+003,8.315816e+001
1.319092e+003,8.351115e+001
1.321985e+003,8.348936e+001
1.324878e+003,8.361720e+001
1.327771e+003,8.423994e+001
1.330663e+003,8.503617e+001
1.333556e+003,8.553027e+001
1.336449e+003,8.542474e+001
1.339342e+003,8.483031e+001
1.342234e+003,8.346092e+001
1.345127e+003,8.159052e+001
1.348020e+003,7.894428e+001
1.350912e+003,7.578787e+001
1.353805e+003,7.289437e+001
1.356698e+003,7.042941e+001
1.359591e+003,6.678111e+001
1.362484e+003,6.282810e+001
1.365376e+003,6.129612e+001
1.368269e+003,6.379314e+001
1.371162e+003,6.811514e+001
1.374054e+003,7.049877e+001
1.376947e+003,7.409524e+001
1.379840e+003,7.960511e+001
1.382733e+003,8.288488e+001
1.385625e+003,8.354385e+001
1.388518e+003,8.228603e+001
1.391411e+003,7.997985e+001
1.394304e+003,7.728390e+001
1.397196e+003,7.583835e+001
1.400089e+003,7.864210e+001
1.402982e+003,8.236441e+001
1.405875e+003,8.456673e+001
1.408767e+003,8.392332e+001
1.411660e+003,8.040631e+001
1.414553e+003,7.647160e+001
1.417446e+003,7.515736e+001
1.420338e+003,7.555391e+001
1.423231e+003,8.056377e+001
1.426124e+003,8.495854e+001
1.429017e+003,8.667451e+001
1.431909e+003,8.675631e+001
1.434802e+003,8.584106e+001
1.437695e+003,8.571275e+001
1.440588e+003,8.644508e+001
1.443480e+003,8.687002e+001
1.446373e+003,8.662520e+001
1.449266e+003,8.606389e+001
1.452159e+003,8.504460e+001
1.455051e+003,8.372153e+001
1.457944e+003,8.132034e+001
1.460837e+003,8.047274e+001
1.463730e+003,7.910576e+001
1.466622e+003,7.920123e+001
1.469515e+003,7.590325e+001
1.472408e+003,7.865897e+001
1.475301e+003,8.231944e+001
1.478193e+003,8.319902e+001
1.481086e+003,8.766245e+001
1.483979e+003,9.089264e+001
1.486872e+003,9.243635e+001
1.489764e+003,9.310223e+001
1.492657e+003,9.344569e+001
1.495550e+003,9.363805e+001
1.498443e+003,9.363256e+001
1.501335e+003,9.350105e+001
1.504228e+003,9.353173e+001
1.507121e+003,9.402465e+001
1.510014e+003,9.361605e+001
1.512906e+003,9.364504e+001
1.515799e+003,9.387047e+001
1.518692e+003,9.386816e+001
1.521584e+003,9.408630e+001
1.524477e+003,9.406937e+001
1.527370e+003,9.408097e+001
1.530263e+003,9.412145e+001
1.533156e+003,9.420619e+001
1.536048e+003,9.414445e+001
1.538941e+003,9.430222e+001
1.541834e+003,9.434763e+001
1.544726e+003,9.426351e+001
1.547619e+003,9.411301e+001
1.550512e+003,9.411960e+001
1.553405e+003,9.407175e+001
1.556297e+003,9.409946e+001
1.559190e+003,9.484836e+001
1.562083e+003,9.398759e+001
1.564976e+003,9.396909e+001
1.567869e+003,9.389167e+001
1.570761e+003,9.387380e+001
1.573654e+003,9.372484e+001
1.576547e+003,9.383591e+001
1.579439e+003,9.349794e+001
1.582332e+003,9.336816e+001
1.585225e+003,9.330091e+001
1.588118e+003,9.321759e+001
1.591010e+003,9.308386e+001
1.593903e+003,9.301994e+001
1.596796e+003,9.285904e+001
1.599689e+003,9.265749e+001
1.602581e+003,9.257793e+001
1.605474e+003,9.240434e+001
1.608367e+003,9.229497e+001
1.611260e+003,9.207644e+001
1.614152e+003,9.196629e+001
1.617045e+003,9.214037e+001
1.619938e+003,9.162650e+001
1.622831e+003,9.159606e+001
1.625723e+003,9.133783e+001
1.628616e+003,9.117403e+001
1.631509e+003,9.094711e+001
1.634402e+003,9.081998e+001
1.637294e+003,9.093831e+001
1.640187e+003,9.071967e+001
1.643080e+003,9.070036e+001
1.645973e+003,9.063362e+001
1.648865e+003,9.053923e+001
1.651758e+003,9.018567e+001
1.654651e+003,9.019670e+001
1.657544e+003,8.955489e+001
1.660436e+003,8.911635e+001
1.663329e+003,8.863191e+001
1.666222e+003,8.785316e+001
1.669115e+003,8.710131e+001
1.672007e+003,8.602122e+001
1.674900e+003,8.468047e+001
1.677793e+003,8.288340e+001
1.680686e+003,8.060210e+001
1.683578e+003,7.865601e+001
1.686471e+003,7.659115e+001
1.689364e+003,7.488483e+001
1.692257e+003,7.331799e+001
1.695149e+003,7.156446e+001
1.698042e+003,6.907497e+001
1.700935e+003,6.603728e+001
1.703828e+003,6.267348e+001
1.706720e+003,5.771487e+001
1.709613e+003,5.134445e+001
1.712506e+003,4.280695e+001
1.715399e+003,3.230583e+001
1.718291e+003,2.282932e+001
1.721184e+003,2.056532e+001
1.724077e+003,2.578276e+001
1.726969e+003,3.476894e+001
1.729862e+003,4.175589e+001
1.732755e+003,4.641396e+001
1.735648e+003,5.394570e+001
1.738541e+003,5.994769e+001
1.741433e+003,6.857195e+001
1.744326e+003,7.684176e+001
1.747219e+003,8.327246e+001
1.750111e+003,8.770511e+001
1.753004e+003,9.060785e+001
1.755897e+003,9.205992e+001
1.758790e+003,9.300883e+001
1.761682e+003,9.377525e+001
1.764575e+003,9.404787e+001
1.767468e+003,9.444416e+001
1.770361e+003,9.477205e+001
1.773253e+003,9.537943e+001
1.776146e+003,9.555648e+001
1.779039e+003,9.574242e+001
1.781932e+003,9.602607e+001
1.784824e+003,9.638757e+001
1.787717e+003,9.650207e+001
1.790610e+003,9.682388e+001
1.793503e+003,9.705847e+001
1.796395e+003,9.712859e+001
1.799288e+003,9.732644e+001
1.802181e+003,9.744948e+001
1.805074e+003,9.758837e+001
1.807966e+003,9.765231e+001
1.810859e+003,9.781212e+001
1.813752e+003,9.786324e+001
1.816645e+003,9.807539e+001
1.819537e+003,9.799281e+001
1.822430e+003,9.806042e+001
1.825323e+003,9.816458e+001
1.828216e+003,9.814902e+001
1.831108e+003,9.825589e+001
1.834001e+003,9.815406e+001
1.836894e+003,9.816559e+001
1.839787e+003,9.815590e+001
1.842679e+003,9.827451e+001
1.845572e+003,9.826289e+001
1.848465e+003,9.829444e+001
1.851358e+003,9.828114e+001
1.854250e+003,9.842076e+001
1.857143e+003,9.847574e+001
1.860036e+003,9.854150e+001
1.862929e+003,9.853745e+001
1.865821e+003,9.848839e+001
1.868714e+003,9.851793e+001
1.871607e+003,9.846760e+001
1.874500e+003,9.846947e+001
1.877392e+003,9.850209e+001
1.880285e+003,9.848044e+001
1.883178e+003,9.847968e+001
1.886071e+003,9.847292e+001
1.888963e+003,9.850342e+001
1.891856e+003,9.849645e+001
1.894749e+003,9.842857e+001
1.897642e+003,9.852499e+001
1.900534e+003,9.848734e+001
1.903427e+003,9.841888e+001
1.906320e+003,9.847950e+001
1.909213e+003,9.841716e+001
1.912105e+003,9.840636e+001
1.914998e+003,9.847488e+001
1.917891e+003,9.831725e+001
1.920784e+003,9.829306e+001
1.923676e+003,9.848122e+001
1.926569e+003,9.850292e+001
1.929462e+003,9.848217e+001
1.932354e+003,9.855558e+001
1.935247e+003,9.859640e+001
1.938140e+003,9.862695e+001
1.941033e+003,9.863065e+001
1.943926e+003,9.861659e+001
1.946818e+003,9.851168e+001
1.949711e+003,9.845551e+001
1.952604e+003,9.846999e+001
1.955496e+003,9.865269e+001
1.958389e+003,9.870625e+001
1.961282e+003,9.860626e+001
1.964175e+003,9.845209e+001
1.967068e+003,9.859283e+001
1.969960e+003,9.861942e+001
1.972853e+003,9.858348e+001
1.975746e+003,9.847502e+001
1.978638e+003,9.818925e+001
1.981531e+003,9.844994e+001
1.984424e+003,9.840419e+001
1.987317e+003,9.833663e+001
1.990209e+003,9.836523e+001
1.993102e+003,9.852869e+001
1.995995e+003,9.866728e+001
1.998888e+003,9.837926e+001
2.001780e+003,9.826125e+001
2.004673e+003,9.884918e+001
2.007566e+003,9.835368e+001
2.010459e+003,9.826006e+001
2.013351e+003,9.832137e+001
2.016244e+003,9.838211e+001
2.019137e+003,9.877322e+001
2.022030e+003,9.835683e+001
2.024922e+003,9.842590e+001
2.027815e+003,9.823381e+001
2.030708e+003,9.825971e+001
2.033601e+003,9.846947e+001
2.036493e+003,9.849855e+001
2.039386e+003,9.834470e+001
2.042279e+003,9.827839e+001
2.045172e+003,9.838236e+001
2.048064e+003,9.807766e+001
2.050957e+003,9.807266e+001
2.053850e+003,9.847986e+001
2.056743e+003,9.835410e+001
2.059635e+003,9.849291e+001
2.062528e+003,9.822660e+001
2.065421e+003,9.829126e+001
2.068314e+003,9.829240e+001
2.071206e+003,9.809837e+001
2.074099e+003,9.818521e+001
2.076992e+003,9.814379e+001
2.079885e+003,9.818302e+001
2.082777e+003,9.806749e+001
2.085670e+003,9.810454e+001
2.088563e+003,9.831612e+001
2.091456e+003,9.823343e+001
2.094348e+003,9.810454e+001
2.097241e+003,9.796194e+001
2.100134e+003,9.808472e+001
2.103027e+003,9.802048e+001
2.105919e+003,9.822348e+001
2.108812e+003,9.824945e+001
2.111705e+003,9.817470e+001
2.114598e+003,9.819713e+001
2.117490e+003,9.832018e+001
2.120383e+003,9.843722e+001
2.123276e+003,9.847397e+001
2.126168e+003,9.858235e+001
2.129061e+003,9.865280e+001
2.131954e+003,9.885133e+001
2.134847e+003,9.878767e+001
2.137740e+003,9.881685e+001
2.140632e+003,9.860152e+001
2.143525e+003,9.856036e+001
2.146418e+003,9.886511e+001
2.149311e+003,9.867871e+001
2.152203e+003,9.887888e+001
2.155096e+003,9.877362e+001
2.157989e+003,9.882719e+001
2.160882e+003,9.796947e+001
2.163774e+003,9.794078e+001
2.166667e+003,9.838960e+001
2.169560e+003,9.820928e+001
2.172452e+003,9.869358e+001
2.175345e+003,9.860231e+001
2.178238e+003,9.863132e+001
2.181131e+003,9.851968e+001
2.184023e+003,9.841099e+001
2.186916e+003,9.823194e+001
2.189809e+003,9.830122e+001
2.192702e+003,9.854430e+001
2.195594e+003,9.871915e+001
2.198487e+003,9.843779e+001
2.201380e+003,9.851828e+001
2.204273e+003,9.858995e+001
2.207166e+003,9.848694e+001
2.210058e+003,9.842630e+001
2.212951e+003,9.852460e+001
2.215844e+003,9.840974e+001
2.218736e+003,9.841843e+001
2.221629e+003,9.823044e+001
2.224522e+003,9.839803e+001
2.227415e+003,9.844701e+001
2.230307e+003,9.855573e+001
2.233200e+003,9.832524e+001
2.236093e+003,9.831882e+001
2.238986e+003,9.828956e+001
2.241878e+003,9.838686e+001
2.244771e+003,9.840783e+001
2.247664e+003,9.849947e+001
2.250557e+003,9.836424e+001
2.253449e+003,9.836631e+001
2.256342e+003,9.825787e+001
2.259235e+003,9.836134e+001
2.262128e+003,9.812108e+001
2.265020e+003,9.826389e+001
2.267913e+003,9.819702e+001
2.270806e+003,9.816991e+001
2.273699e+003,9.812182e+001
2.276591e+003,9.809241e+001
2.279484e+003,9.819691e+001
2.282377e+003,9.808136e+001
2.285270e+003,9.793524e+001
2.288162e+003,9.790401e+001
2.291055e+003,9.762177e+001
2.293948e+003,9.760947e+001
2.296841e+003,9.739373e+001
2.299733e+003,9.722580e+001
2.302626e+003,9.694448e+001
2.305519e+003,9.663083e+001
2.308412e+003,9.598240e+001
2.311304e+003,9.570204e+001
2.314197e+003,9.539847e+001
2.317090e+003,9.467477e+001
2.319983e+003,9.403771e+001
2.322875e+003,9.306577e+001
2.325768e+003,9.325961e+001
2.328661e+003,9.263605e+001
2.331553e+003,9.233451e+001
2.334446e+003,9.234830e+001
2.337339e+003,9.202555e+001
2.340232e+003,9.154984e+001
2.343125e+003,9.161217e+001
2.346017e+003,9.256399e+001
2.348910e+003,9.438297e+001
2.351803e+003,9.220612e+001
2.354696e+003,9.086010e+001
2.357588e+003,8.963037e+001
2.360481e+003,8.933080e+001
2.363374e+003,8.992477e+001
2.366267e+003,9.109932e+001
2.369159e+003,9.194225e+001
2.372052e+003,9.348663e+001
2.374945e+003,9.478195e+001
2.377837e+003,9.611388e+001
2.380730e+003,9.707314e+001
2.383623e+003,9.797147e+001
2.386516e+003,9.836860e+001
2.389408e+003,9.861282e+001
2.392301e+003,9.850264e+001
2.395194e+003,9.847581e+001
2.398087e+003,9.848406e+001
2.400979e+003,9.846146e+001
2.403872e+003,9.847149e+001
2.406765e+003,9.841831e+001
2.409658e+003,9.827721e+001
2.412551e+003,9.823873e+001
2.415443e+003,9.840025e+001
2.418336e+003,9.832896e+001
2.421229e+003,9.836652e+001
2.424121e+003,9.832103e+001
2.427014e+003,9.841106e+001
2.429907e+003,9.844997e+001
2.432800e+003,9.837045e+001
2.435692e+003,9.840252e+001
2.438585e+003,9.839610e+001
2.441478e+003,9.836726e+001
2.444371e+003,9.845580e+001
2.447263e+003,9.835638e+001
2.450156e+003,9.846078e+001
2.453049e+003,9.837178e+001
2.455942e+003,9.835798e+001
2.458834e+003,9.841409e+001
2.461727e+003,9.841068e+001
2.464620e+003,9.834134e+001
2.467513e+003,9.834564e+001
2.470405e+003,9.836830e+001
2.473298e+003,9.840446e+001
2.476191e+003,9.830869e+001
2.479084e+003,9.840206e+001
2.481976e+003,9.837585e+001
2.484869e+003,9.828728e+001
2.487762e+003,9.831356e+001
2.490655e+003,9.829797e+001
2.493547e+003,9.838285e+001
2.496440e+003,9.829842e+001
2.499333e+003,9.838004e+001
2.502226e+003,9.833395e+001
2.505118e+003,9.838090e+001
2.508011e+003,9.840253e+001
2.510904e+003,9.831844e+001
2.513797e+003,9.826984e+001
2.516689e+003,9.824969e+001
2.519582e+003,9.829425e+001
2.522475e+003,9.828190e+001
2.525368e+003,9.823573e+001
2.528260e+003,9.825927e+001
2.531153e+003,9.815485e+001
2.534046e+003,9.814691e+001
2.536938e+003,9.810818e+001
2.539831e+003,9.811967e+001
2.542724e+003,9.816467e+001
2.545617e+003,9.811793e+001
2.548510e+003,9.824999e+001
2.551402e+003,9.823890e+001
2.554295e+003,9.821815e+001
2.557188e+003,9.815448e+001
2.560081e+003,9.808457e+001
2.562973e+003,9.817032e+001
2.565866e+003,9.800669e+001
2.568759e+003,9.813825e+001
2.571652e+003,9.808447e+001
2.574544e+003,9.802155e+001
2.577437e+003,9.801714e+001
2.580330e+003,9.792468e+001
2.583222e+003,9.810836e+001
2.586115e+003,9.798515e+001
2.589008e+003,9.803652e+001
2.591901e+003,9.808524e+001
2.594793e+003,9.807503e+001
2.597686e+003,9.795163e+001
2.600579e+003,9.801675e+001
2.603472e+003,9.803290e+001
2.606365e+003,9.793742e+001
2.609257e+003,9.792785e+001
2.612150e+003,9.797852e+001
2.615043e+003,9.793369e+001
2.617936e+003,9.792830e+001
2.620828e+003,9.789034e+001
2.623721e+003,9.790164e+001
2.626614e+003,9.788371e+001
2.629506e+003,9.780847e+001
2.632399e+003,9.783732e+001
2.635292e+003,9.779700e+001
2.638185e+003,9.779379e+001
2.641077e+003,9.771835e+001
2.643970e+003,9.768036e+001
2.646863e+003,9.771692e+001
2.649756e+003,9.766941e+001
2.652648e+003,9.767406e+001
2.655541e+003,9.771001e+001
2.658434e+003,9.770577e+001
2.661327e+003,9.772602e+001
2.664219e+003,9.774875e+001
2.667112e+003,9.774031e+001
2.670005e+003,9.776691e+001
2.672898e+003,9.776035e+001
2.675790e+003,9.768346e+001
2.678683e+003,9.767845e+001
2.681576e+003,9.771550e+001
2.684469e+003,9.768283e+001
2.687361e+003,9.770236e+001
2.690254e+003,9.767305e+001
2.693147e+003,9.763915e+001
2.696040e+003,9.766824e+001
2.698932e+003,9.764106e+001
2.701825e+003,9.766930e+001
2.704718e+003,9.764901e+001
2.707611e+003,9.757744e+001
2.710503e+003,9.755894e+001
2.713396e+003,9.756384e+001
2.716289e+003,9.753233e+001
2.719182e+003,9.756425e+001
2.722074e+003,9.754539e+001
2.724967e+003,9.750398e+001
2.727860e+003,9.750336e+001
2.730753e+003,9.747065e+001
2.733645e+003,9.751627e+001
2.736538e+003,9.742020e+001
2.739431e+003,9.749123e+001
2.742323e+003,9.744159e+001
2.745216e+003,9.740550e+001
2.748109e+003,9.731794e+001
2.751002e+003,9.734924e+001
2.753895e+003,9.733082e+001
2.756787e+003,9.730743e+001
2.759680e+003,9.729480e+001
2.762573e+003,9.734492e+001
2.765466e+003,9.725832e+001
2.768358e+003,9.714439e+001
2.771251e+003,9.720310e+001
2.774144e+003,9.711005e+001
2.777037e+003,9.713188e+001
2.779929e+003,9.711897e+001
2.782822e+003,9.704585e+001
2.785715e+003,9.701322e+001
2.788607e+003,9.699184e+001
2.791500e+003,9.692468e+001
2.794393e+003,9.683949e+001
2.797286e+003,9.682359e+001
2.800178e+003,9.670813e+001
2.803071e+003,9.665073e+001
2.805964e+003,9.658544e+001
2.808857e+003,9.637629e+001
2.811750e+003,9.627834e+001
2.814642e+003,9.602364e+001
2.817535e+003,9.589481e+001
2.820428e+003,9.572518e+001
2.823321e+003,9.548945e+001
2.826213e+003,9.522936e+001
2.829106e+003,9.503942e+001
2.831999e+003,9.477352e+001
2.834891e+003,9.441602e+001
2.837784e+003,9.386475e+001
2.840677e+003,9.316386e+001
2.843570e+003,9.215476e+001
2.846462e+003,9.085535e+001
2.849355e+003,8.910083e+001
2.852248e+003,8.718504e+001
2.855141e+003,8.530001e+001
2.858033e+003,8.347483e+001
2.860926e+003,8.171690e+001
2.863819e+003,8.059592e+001
2.866712e+003,8.087302e+001
2.869604e+003,8.212379e+001
2.872497e+003,8.408498e+001
2.875390e+003,8.617382e+001
2.878283e+003,8.752770e+001
2.881175e+003,8.817998e+001
2.884068e+003,8.825637e+001
2.886961e+003,8.760503e+001
2.889854e+003,8.628941e+001
2.892746e+003,8.478204e+001
2.895639e+003,8.424249e+001
2.898532e+003,8.481395e+001
2.901425e+003,8.478765e+001
2.904317e+003,8.413217e+001
2.907210e+003,8.319189e+001
2.910103e+003,8.237016e+001
2.912996e+003,8.154922e+001
2.915888e+003,8.056625e+001
2.918781e+003,7.930022e+001
2.921674e+003,7.795210e+001
2.924567e+003,7.690222e+001
2.927459e+003,7.624522e+001
2.930352e+003,7.553975e+001
2.933245e+003,7.445215e+001
2.936137e+003,7.363959e+001
2.939030e+003,7.327078e+001
2.941923e+003,7.297013e+001
2.944816e+003,7.296291e+001
2.947708e+003,7.376204e+001
2.950601e+003,7.525623e+001
2.953494e+003,7.653398e+001
2.956387e+003,7.786614e+001
2.959280e+003,7.984648e+001
2.962172e+003,8.224686e+001
2.965065e+003,8.427864e+001
2.967958e+003,8.624845e+001
2.970851e+003,8.811230e+001
2.973743e+003,8.985556e+001
2.976636e+003,9.121218e+001
2.979529e+003,9.238245e+001
2.982422e+003,9.333658e+001
2.985314e+003,9.399815e+001
2.988207e+003,9.458369e+001
2.991100e+003,9.512924e+001
2.993992e+003,9.548935e+001
2.996885e+003,9.581345e+001
2.999778e+003,9.601118e+001
3.002671e+003,9.628095e+001
3.005563e+003,9.638538e+001
3.008456e+003,9.654543e+001
3.011349e+003,9.666872e+001
3.014242e+003,9.677460e+001
3.017135e+003,9.679144e+001
3.020027e+003,9.679443e+001
3.022920e+003,9.687182e+001
3.025813e+003,9.686474e+001
3.028706e+003,9.690054e+001
3.031598e+003,9.684335e+001
3.034491e+003,9.696690e+001
3.037384e+003,9.705112e+001
3.040276e+003,9.701239e+001
3.043169e+003,9.690169e+001
3.046062e+003,9.691776e+001
3.048955e+003,9.707489e+001
3.051847e+003,9.693507e+001
3.054740e+003,9.695077e+001
3.057633e+003,9.690517e+001
3.060526e+003,9.696040e+001
3.063418e+003,9.690760e+001
3.066311e+003,9.699895e+001
3.069204e+003,9.698003e+001
3.072097e+003,9.701935e+001
3.074990e+003,9.693510e+001
3.077882e+003,9.690032e+001
3.080775e+003,9.705944e+001
3.083668e+003,9.691015e+001
3.086560e+003,9.698656e+001
3.089453e+003,9.697161e+001
3.092346e+003,9.693401e+001
3.095239e+003,9.692760e+001
3.098131e+003,9.698181e+001
3.101024e+003,9.695294e+001
3.103917e+003,9.701575e+001
3.106810e+003,9.686264e+001
3.109702e+003,9.695608e+001
3.112595e+003,9.701158e+001
3.115488e+003,9.698166e+001
3.118381e+003,9.688161e+001
3.121273e+003,9.691898e+001
3.124166e+003,9.695256e+001
3.127059e+003,9.689964e+001
3.129952e+003,9.692093e+001
3.132844e+003,9.690619e+001
3.135737e+003,9.692535e+001
3.138630e+003,9.684968e+001
3.141522e+003,9.695037e+001
3.144415e+003,9.683614e+001
3.147308e+003,9.687292e+001
3.150201e+003,9.692654e+001
3.153094e+003,9.682273e+001
3.155986e+003,9.690649e+001
3.158879e+003,9.684759e+001
3.161772e+003,9.681151e+001
3.164665e+003,9.688525e+001
3.167557e+003,9.685098e+001
3.170450e+003,9.680186e+001
3.173343e+003,9.688114e+001
3.176236e+003,9.674775e+001
3.179128e+003,9.676144e+001
3.182021e+003,9.677127e+001
3.184914e+003,9.680790e+001
3.187806e+003,9.682651e+001
3.190699e+003,9.680040e+001
3.193592e+003,9.670420e+001
3.196485e+003,9.681235e+001
3.199377e+003,9.670517e+001
3.202270e+003,9.684254e+001
3.205163e+003,9.667332e+001
3.208056e+003,9.673061e+001
3.210948e+003,9.682157e+001
3.213841e+003,9.673613e+001
3.216734e+003,9.670950e+001
3.219627e+003,9.675374e+001
3.222520e+003,9.663332e+001
3.225412e+003,9.677739e+001
3.228305e+003,9.674259e+001
3.231198e+003,9.673719e+001
3.234091e+003,9.670333e+001
3.236983e+003,9.678008e+001
3.239876e+003,9.672984e+001
3.242769e+003,9.682095e+001
3.245661e+003,9.675377e+001
3.248554e+003,9.686780e+001
3.251447e+003,9.665659e+001
3.254340e+003,9.666111e+001
3.257232e+003,9.668369e+001
3.260125e+003,9.672108e+001
3.263018e+003,9.665236e+001
3.265911e+003,9.661493e+001
3.268803e+003,9.671426e+001
3.271696e+003,9.662292e+001
3.274589e+003,9.675206e+001
3.277482e+003,9.658450e+001
3.280375e+003,9.660246e+001
3.283267e+003,9.663624e+001
3.286160e+003,9.664954e+001
3.289053e+003,9.659357e+001
3.291945e+003,9.664270e+001
3.294838e+003,9.667330e+001
3.297731e+003,9.669798e+001
3.300624e+003,9.668615e+001
3.303516e+003,9.668839e+001
3.306409e+003,9.675597e+001
3.309302e+003,9.665096e+001
3.312195e+003,9.677421e+001
3.315087e+003,9.659863e+001
3.317980e+003,9.669541e+001
3.320873e+003,9.678618e+001
3.323766e+003,9.665929e+001
3.326658e+003,9.672767e+001
3.329551e+003,9.671396e+001
3.332444e+003,9.668621e+001
3.335337e+003,9.665453e+001
3.338229e+003,9.672511e+001
3.341122e+003,9.662841e+001
3.344015e+003,9.668456e+001
3.346907e+003,9.678905e+001
3.349800e+003,9.673888e+001
3.352693e+003,9.675525e+001
3.355586e+003,9.680287e+001
3.358479e+003,9.672520e+001
3.361371e+003,9.667571e+001
3.364264e+003,9.669715e+001
3.367157e+003,9.677330e+001
3.370050e+003,9.677751e+001
3.372942e+003,9.683885e+001
3.375835e+003,9.682423e+001
3.378728e+003,9.679060e+001
3.381621e+003,9.678934e+001
3.384513e+003,9.688157e+001
3.387406e+003,9.686967e+001
3.390299e+003,9.677913e+001
3.393191e+003,9.679521e+001
3.396084e+003,9.679781e+001
3.398977e+003,9.692343e+001
3.401870e+003,9.688754e+001
3.404762e+003,9.683783e+001
3.407655e+003,9.683846e+001
3.410548e+003,9.688526e+001
3.413441e+003,9.674026e+001
3.416333e+003,9.679291e+001
3.419226e+003,9.683112e+001
3.422119e+003,9.678902e+001
3.425012e+003,9.662893e+001
3.427905e+003,9.659332e+001
3.430797e+003,9.653008e+001
3.433690e+003,9.639825e+001
3.436583e+003,9.625641e+001
3.439475e+003,9.630777e+001
3.442368e+003,9.645138e+001
3.445261e+003,9.657851e+001
3.448154e+003,9.660071e+001
3.451046e+003,9.670113e+001
3.453939e+003,9.678726e+001
3.456832e+003,9.672186e+001
3.459725e+003,9.676900e+001
3.462617e+003,9.697207e+001
3.465510e+003,9.710046e+001
3.468403e+003,9.700562e+001
3.471296e+003,9.706641e+001
3.474188e+003,9.711431e+001
3.477081e+003,9.726423e+001
3.479974e+003,9.712428e+001
3.482867e+003,9.733501e+001
3.485760e+003,9.733405e+001
3.488652e+003,9.734325e+001
3.491545e+003,9.742121e+001
3.494438e+003,9.728381e+001
3.497330e+003,9.736627e+001
3.500223e+003,9.753530e+001
3.503116e+003,9.737336e+001
3.506009e+003,9.748920e+001
3.508901e+003,9.749831e+001
3.511794e+003,9.746765e+001
3.514687e+003,9.748618e+001
3.517580e+003,9.746797e+001
3.520472e+003,9.762894e+001
3.523365e+003,9.755778e+001
3.526258e+003,9.759876e+001
3.529151e+003,9.752937e+001
3.532043e+003,9.766550e+001
3.534936e+003,9.757898e+001
3.537829e+003,9.763210e+001
3.540722e+003,9.770000e+001
3.543614e+003,9.754643e+001
3.546507e+003,9.764930e+001
3.549400e+003,9.776115e+001
3.552292e+003,9.770795e+001
3.555185e+003,9.782054e+001
3.558078e+003,9.782444e+001
3.560971e+003,9.793034e+001
3.563864e+003,9.780927e+001
3.566756e+003,9.808660e+001
3.569649e+003,9.792103e+001
3.572542e+003,9.798616e+001
3.575435e+003,9.801042e+001
3.578327e+003,9.800526e+001
3.581220e+003,9.808643e+001
3.584113e+003,9.811861e+001
3.587006e+003,9.825339e+001
3.589898e+003,9.803262e+001
3.592791e+003,9.801313e+001
3.595684e+003,9.813461e+001
3.598576e+003,9.796825e+001
3.601469e+003,9.795686e+001
3.604362e+003,9.800207e+001
3.607255e+003,9.802115e+001
3.610147e+003,9.841582e+001
3.613040e+003,9.847476e+001
3.615933e+003,9.819803e+001
3.618826e+003,9.834126e+001
3.621719e+003,9.821378e+001
3.624611e+003,9.813329e+001
3.627504e+003,9.832082e+001
3.630397e+003,9.816544e+001
3.633290e+003,9.814063e+001
3.636182e+003,9.833085e+001
3.639075e+003,9.836633e+001
3.641968e+003,9.858708e+001
3.644860e+003,9.867751e+001
3.647753e+003,9.896460e+001
3.650646e+003,9.905064e+001
3.653539e+003,9.872251e+001
3.656431e+003,9.897485e+001
3.659324e+003,9.882764e+001
3.662217e+003,9.887244e+001
3.665110e+003,9.901184e+001
3.668002e+003,9.881036e+001
3.670895e+003,9.910546e+001
3.673788e+003,9.900307e+001
3.676681e+003,9.901740e+001
3.679573e+003,9.893601e+001
3.682466e+003,9.887028e+001
3.685359e+003,9.879874e+001
3.688252e+003,9.898312e+001
3.691145e+003,9.904166e+001
3.694037e+003,9.883302e+001
3.696930e+003,9.874606e+001
3.699823e+003,9.872701e+001
3.702715e+003,9.864472e+001
3.705608e+003,9.872588e+001
3.708501e+003,9.882822e+001
3.711394e+003,9.892870e+001
3.714286e+003,9.905308e+001
3.717179e+003,9.896410e+001
3.720072e+003,9.884787e+001
3.722965e+003,9.867198e+001
3.725857e+003,9.866392e+001
3.728750e+003,9.867290e+001
3.731643e+003,9.886877e+001
3.734536e+003,9.868176e+001
3.737428e+003,9.890856e+001
3.740321e+003,9.892522e+001
3.743214e+003,9.902048e+001
3.746107e+003,9.913707e+001
3.748999e+003,9.928318e+001
3.751892e+003,9.967192e+001
3.754785e+003,9.915575e+001
3.757677e+003,9.923197e+001
3.760570e+003,9.910641e+001
3.763463e+003,9.910078e+001
3.766356e+003,9.904121e+001
3.769249e+003,9.918803e+001
3.772141e+003,9.910329e+001
3.775034e+003,9.910220e+001
3.777927e+003,9.914948e+001
3.780820e+003,9.909036e+001
3.783712e+003,9.910228e+001
3.786605e+003,9.908744e+001
3.789498e+003,9.920895e+001
3.792391e+003,9.921728e+001
3.795283e+003,9.916055e+001
3.798176e+003,9.915147e+001
3.801069e+003,9.907007e+001
3.803961e+003,9.920656e+001
3.806854e+003,9.930788e+001
3.809747e+003,9.907202e+001
3.812640e+003,9.920026e+001
3.815532e+003,9.928063e+001
3.818425e+003,9.922338e+001
3.821318e+003,9.913537e+001
3.824211e+003,9.905067e+001
3.827104e+003,9.919685e+001
3.829996e+003,9.915839e+001
3.832889e+003,9.919792e+001
3.835782e+003,9.912069e+001
3.838675e+003,9.940678e+001
3.841567e+003,9.907528e+001
3.844460e+003,9.916715e+001
3.847353e+003,9.911871e+001
3.850245e+003,9.922012e+001
3.853138e+003,9.933095e+001
3.856031e+003,9.904008e+001
3.858924e+003,9.904266e+001
3.861816e+003,9.915424e+001
3.864709e+003,9.936827e+001
3.867602e+003,9.915746e+001
3.870495e+003,9.941198e+001
3.873387e+003,9.901430e+001
3.876280e+003,9.907841e+001
3.879173e+003,9.907138e+001
3.882066e+003,9.910271e+001
3.884958e+003,9.921941e+001
3.887851e+003,9.899285e+001
3.890744e+003,9.915914e+001
3.893637e+003,9.913367e+001
3.896529e+003,9.893478e+001
3.899422e+003,9.905045e+001
3.902315e+003,9.893359e+001
3.905208e+003,9.938213e+001
3.908100e+003,9.901797e+001
3.910993e+003,9.917997e+001
3.913886e+003,9.917482e+001
3.916779e+003,9.916350e+001
3.919671e+003,9.905628e+001
3.922564e+003,9.914768e+001
3.925457e+003,9.904794e+001
3.928350e+003,9.906316e+001
3.931242e+003,9.903645e+001
3.934135e+003,9.902412e+001
3.937028e+003,9.895138e+001
3.939921e+003,9.911464e+001
3.942813e+003,9.907625e+001
3.945706e+003,9.899984e+001
3.948599e+003,9.912663e+001
3.951492e+003,9.905721e+001
3.954384e+003,9.924497e+001
3.957277e+003,9.901144e+001
3.960170e+003,9.897917e+001
3.963063e+003,9.908176e+001
3.965955e+003,9.898450e+001
3.968848e+003,9.913976e+001
3.971741e+003,9.908770e+001
3.974634e+003,9.905672e+001
3.977526e+003,9.901646e+001
3.980419e+003,9.898670e+001
3.983312e+003,9.907287e+001
3.986205e+003,9.906155e+001
3.989097e+003,9.917645e+001
3.991990e+003,9.900639e+001
3.994883e+003,9.899486e+001
3.997776e+003,9.897775e+001
4.000668e+003,0.000000e+000