File: FTIR Data (PCL)/All Data/PCL_NaOH_PDA_2_2.CSV
3.991989e+002,0.000000e+000
4.020916e+002,0.000000e+000
4.049844e+002,0.000000e+000
4.078771e+002,0.000000e+000
4.107699e+002,0.000000e+000
4.136626e+002,0.000000e+000
4.165554e+002,0.000000e+000
4.194481e+002,0.000000e+000
4.223409e+002,0.000000e+000
4.252336e+002,0.000000e+000
4.281263e+002,0.000000e+000
4.310191e+002,0.000000e+000
4.339118e+002,0.000000e+000
4.368046e+002,0.000000e+000
4.396973e+002,0.000000e+000
4.425901e+002,0.000000e+000
4.454828e+002,0.000000e+000
4.483756e+002,0.000000e+000
4.512683e+002,0.000000e+000
4.541611e+002,0.000000e+000
4.570538e+002,0.000000e+000
4.599466e+002,0.000000e+000
4.628393e+002,0.000000e+000
4.657321e+002,0.000000e+000
4.686248e+002,0.000000e+000
4.715175e+002,0.000000e+000
4.744103e+002,0.000000e+000
4.773030e+002,0.000000e+000
4.801958e+002,0.000000e+000
4.830885e+002,0.000000e+000
4.859813e+002,0.000000e+000
4.888740e+002,0.000000e+000
4.917668e+002,0.000000e+000
4.946595e+002,0.000000e+000
4.975523e+002,0.000000e+000
5.004450e+002,0.000000e+000
5.033378e+002,0.000000e+000
5.062305e+002,0.000000e+000
5.091233e+002,0.000000e+000
5.120160e+002,0.000000e+000
5.149088e+002,0.000000e+000
5.178015e+002,0.000000e+000
5.206942e+002,0.000000e+000
5.235870e+002,0.000000e+000
5.264797e+002,0.000000e+000
5.293725e+002,0.000000e+000
5.322652e+002,0.000000e+000
5.351580e+002,0.000000e+000
5.380507e+002,0.000000e+000
5.409435e+002,0.000000e+000
5.438362e+002,0.000000e+000
5.467289e+002,0.000000e+000
5.496217e+002,8.559561e+001
5.525145e+002,8.331583e+001
5.554072e+002,8.754604e+001
5.582999e+002,8.164846e+001
5.611927e+002,8.506285e+001
5.640854e+002,8.255554e+001
5.669782e+002,7.883747e+001
5.698709e+002,8.138982e+001
5.727637e+002,7.932923e+001
5.756564e+002,7.584007e+001
5.785492e+002,7.671365e+001
5.814419e+002,7.860650e+001
5.843347e+002,7.581210e+001
5.872274e+002,7.740582e+001
5.901202e+002,8.079788e+001
5.930129e+002,7.979872e+001
5.959056e+002,8.270617e+001
5.987984e+002,8.273233e+001
6.016912e+002,8.274265e+001
6.045839e+002,8.270853e+001
6.074766e+002,8.402423e+001
6.103694e+002,8.362901e+001
6.132621e+002,8.430500e+001
6.161548e+002,8.394868e+001
6.190476e+002,8.464895e+001
6.219404e+002,8.526791e+001
6.248331e+002,8.395804e+001
6.277258e+002,8.476191e+001
6.306186e+002,8.396979e+001
6.335114e+002,8.470379e+001
6.364041e+002,8.471477e+001
6.392968e+002,8.461874e+001
6.421896e+002,8.417177e+001
6.450823e+002,8.410081e+001
6.479751e+002,8.393078e+001
6.508679e+002,8.405417e+001
6.537606e+002,8.404132e+001
6.566533e+002,8.425377e+001
6.595461e+002,8.440057e+001
6.624388e+002,8.421532e+001
6.653315e+002,8.451954e+001
6.682243e+002,8.004674e+001
6.711171e+002,8.390659e+001
6.740098e+002,8.381717e+001
6.769025e+002,8.320803e+001
6.797953e+002,8.314622e+001
6.826880e+002,8.267358e+001
6.855808e+002,8.213181e+001
6.884735e+002,8.156941e+001
6.913663e+002,8.091398e+001
6.942590e+002,7.991748e+001
6.971518e+002,7.875881e+001
7.000445e+002,7.730767e+001
7.029373e+002,7.547691e+001
7.058300e+002,7.316191e+001
7.087228e+002,7.186703e+001
7.116155e+002,7.233503e+001
7.145082e+002,7.403364e+001
7.174010e+002,7.483079e+001
7.202938e+002,7.336617e+001
7.231865e+002,6.874251e+001
7.260792e+002,6.136988e+001
7.289720e+002,5.881075e+001
7.318647e+002,5.638238e+001
7.347575e+002,6.321018e+001
7.376502e+002,7.068502e+001
7.405430e+002,7.604597e+001
7.434357e+002,8.006235e+001
7.463285e+002,8.246275e+001
7.492212e+002,8.394524e+001
7.521140e+002,8.502531e+001
7.550067e+002,8.580538e+001
7.578995e+002,8.629140e+001
7.607922e+002,8.643649e+001
7.636849e+002,8.593132e+001
7.665777e+002,8.516046e+001
7.694705e+002,8.439527e+001
7.723632e+002,8.370567e+001
7.752559e+002,8.413472e+001
7.781487e+002,8.489341e+001
7.810414e+002,8.566982e+001
7.839341e+002,8.610032e+001
7.868269e+002,8.626224e+001
7.897197e+002,8.643378e+001
7.926124e+002,8.640323e+001
7.955051e+002,8.643805e+001
7.983979e+002,8.636306e+001
8.012906e+002,8.616129e+001
8.041834e+002,8.630894e+001
8.070761e+002,8.613298e+001
8.099689e+002,8.608922e+001
8.128616e+002,8.616642e+001
8.157544e+002,8.612067e+001
8.186472e+002,8.612859e+001
8.215399e+002,8.599350e+001
8.244326e+002,8.582036e+001
8.273254e+002,8.552324e+001
8.302181e+002,8.475659e+001
8.331108e+002,8.346071e+001
8.360036e+002,8.117993e+001
8.388964e+002,7.799632e+001
8.417891e+002,7.872449e+001
8.446818e+002,8.285474e+001
8.475746e+002,8.416641e+001
8.504673e+002,8.444873e+001
8.533601e+002,8.441651e+001
8.562528e+002,8.431643e+001
8.591456e+002,8.418858e+001
8.620383e+002,8.413938e+001
8.649311e+002,8.401220e+001
8.678238e+002,8.380492e+001
8.707166e+002,8.371088e+001
8.736093e+002,8.360972e+001
8.765021e+002,8.358925e+001
8.793948e+002,8.344421e+001
8.822875e+002,8.338221e+001
8.851803e+002,8.320621e+001
8.880731e+002,8.304269e+001
8.909658e+002,8.292098e+001
8.938585e+002,8.285368e+001
8.967513e+002,8.274643e+001
8.996440e+002,8.251592e+001
9.025368e+002,8.221754e+001
9.054295e+002,8.173103e+001
9.083223e+002,8.135740e+001
9.112150e+002,8.058303e+001
9.141078e+002,7.995602e+001
9.170005e+002,7.924680e+001
9.198932e+002,7.822798e+001
9.227860e+002,7.676190e+001
9.256788e+002,7.467420e+001
9.285715e+002,7.167549e+001
9.314642e+002,6.815052e+001
9.343570e+002,6.691938e+001
9.372498e+002,7.012391e+001
9.401425e+002,7.298407e+001
9.430352e+002,7.326353e+001
9.459280e+002,7.185561e+001
9.488207e+002,6.921560e+001
9.517134e+002,6.551363e+001
9.546062e+002,6.132870e+001
9.574990e+002,5.687653e+001
9.603917e+002,5.413338e+001
9.632844e+002,5.764245e+001
9.661772e+002,6.529120e+001
9.690699e+002,6.977798e+001
9.719627e+002,7.214484e+001
9.748554e+002,7.385007e+001
9.777482e+002,7.556423e+001
9.806409e+002,7.657618e+001
9.835337e+002,7.678113e+001
9.864265e+002,7.660143e+001
9.893192e+002,7.637187e+001
9.922119e+002,7.618195e+001
9.951047e+002,7.613566e+001
9.979974e+002,7.608684e+001
1.000890e+003,7.584658e+001
1.003783e+003,7.547930e+001
1.006676e+003,7.490040e+001
1.009568e+003,7.429884e+001
1.012461e+003,7.353227e+001
1.015354e+003,7.269764e+001
1.018247e+003,7.155522e+001
1.021139e+003,7.036574e+001
1.024032e+003,6.874041e+001
1.026925e+003,6.675608e+001
1.029818e+003,6.436063e+001
1.032710e+003,6.171901e+001
1.035603e+003,5.810068e+001
1.038496e+003,5.408091e+001
1.041389e+003,4.983362e+001
1.044281e+003,4.654659e+001
1.047174e+003,4.763121e+001
1.050067e+003,5.507742e+001
1.052960e+003,6.263439e+001
1.055852e+003,6.704865e+001
1.058745e+003,6.816762e+001
1.061638e+003,6.618857e+001
1.064531e+003,6.356088e+001
1.067423e+003,6.472886e+001
1.070316e+003,6.901342e+001
1.073209e+003,7.121263e+001
1.076102e+003,7.134254e+001
1.078994e+003,7.002345e+001
1.081887e+003,6.777404e+001
1.084780e+003,6.530701e+001
1.087673e+003,6.288151e+001
1.090565e+003,6.080894e+001
1.093458e+003,5.948122e+001
1.096351e+003,5.881694e+001
1.099244e+003,5.815315e+001
1.102136e+003,5.670657e+001
1.105029e+003,5.445531e+001
1.107922e+003,5.327275e+001
1.110815e+003,5.703267e+001
1.113707e+003,6.337968e+001
1.116600e+003,6.814707e+001
1.119493e+003,7.025249e+001
1.122385e+003,6.983304e+001
1.125278e+003,6.799143e+001
1.128171e+003,6.549384e+001
1.131064e+003,6.253633e+001
1.133957e+003,5.902493e+001
1.136849e+003,5.496350e+001
1.139742e+003,5.039591e+001
1.142635e+003,4.545736e+001
1.145527e+003,4.018464e+001
1.148420e+003,3.511948e+001
1.151313e+003,3.067934e+001
1.154206e+003,2.739423e+001
1.157099e+003,2.532212e+001
1.159991e+003,2.439789e+001
1.162884e+003,2.443862e+001
1.165777e+003,2.506244e+001
1.168669e+003,2.599624e+001
1.171562e+003,2.712659e+001
1.174455e+003,2.834297e+001
1.177348e+003,2.958685e+001
1.180240e+003,3.109244e+001
1.183133e+003,3.235361e+001
1.186026e+003,3.352676e+001
1.188919e+003,3.653074e+001
1.191811e+003,4.199649e+001
1.194704e+003,4.941515e+001
1.197597e+003,5.766401e+001
1.200490e+003,6.424150e+001
1.203382e+003,6.766873e+001
1.206275e+003,6.940508e+001
1.209168e+003,7.023294e+001
1.212061e+003,7.051746e+001
1.214953e+003,7.019076e+001
1.217846e+003,6.940821e+001
1.220739e+003,6.809699e+001
1.223632e+003,6.592695e+001
1.226524e+003,6.229821e+001
1.229417e+003,5.661935e+001
1.232310e+003,4.907001e+001
1.235203e+003,4.192387e+001
1.238095e+003,3.928017e+001
1.240988e+003,4.169559e+001
1.243881e+003,4.643090e+001
1.246774e+003,5.536706e+001
1.249666e+003,6.552406e+001
1.252559e+003,7.135861e+001
1.255452e+003,7.390680e+001
1.258345e+003,7.534811e+001
1.261237e+003,7.636959e+001
1.264130e+003,7.705338e+001
1.267023e+003,7.730967e+001
1.269916e+003,7.714589e+001
1.272808e+003,7.649731e+001
1.275701e+003,7.562272e+001
1.278594e+003,7.460970e+001
1.281487e+003,7.329372e+001
1.284379e+003,7.146667e+001
1.287272e+003,6.791792e+001
1.290165e+003,6.072996e+001
1.293057e+003,5.552468e+001
1.295950e+003,6.009974e+001
1.298843e+003,6.763137e+001
1.301736e+003,7.312205e+001
1.304629e+003,7.601756e+001
1.307521e+003,7.848986e+001
1.310414e+003,8.044808e+001
1.313307e+003,8.177298e+001
1.316200e+003,8.253775e+001
1.319092e+003,8.288360e+001
1.321985e+003,8.292199e+001
1.324878e+003,8.303587e+001
1.327771e+003,8.366902e+001
1.330663e+003,8.454773e+001
1.333556e+003,8.499016e+001
1.336449e+003,8.496139e+001
1.339342e+003,8.431057e+001
1.342234e+003,8.291695e+001
1.345127e+003,8.091478e+001
1.348020e+003,7.814052e+001
1.350912e+003,7.485052e+001
1.353805e+003,7.183048e+001
1.356698e+003,6.916675e+001
1.359591e+003,6.532546e+001
1.362484e+003,6.119537e+001
1.365376e+003,5.958623e+001
1.368269e+003,6.224335e+001
1.371162e+003,6.683883e+001
1.374054e+003,6.933053e+001
1.376947e+003,7.310180e+001
1.379840e+003,7.880936e+001
1.382733e+003,8.231263e+001
1.385625e+003,8.296873e+001
1.388518e+003,8.167228e+001
1.391411e+003,7.923808e+001
1.394304e+003,7.644984e+001
1.397196e+003,7.491649e+001
1.400089e+003,7.779838e+001
1.402982e+003,8.175999e+001
1.405875e+003,8.406729e+001
1.408767e+003,8.334062e+001
1.411660e+003,7.958904e+001
1.414553e+003,7.549149e+001
1.417446e+003,7.413293e+001
1.420338e+003,7.453735e+001
1.423231e+003,7.978653e+001
1.426124e+003,8.441679e+001
1.429017e+003,8.628165e+001
1.431909e+003,8.638046e+001
1.434802e+003,8.546122e+001
1.437695e+003,8.523866e+001
1.440588e+003,8.600089e+001
1.443480e+003,8.649396e+001
1.446373e+003,8.621253e+001
1.449266e+003,8.562156e+001
1.452159e+003,8.457818e+001
1.455051e+003,8.319308e+001
1.457944e+003,8.065004e+001
1.460837e+003,7.970760e+001
1.463730e+003,7.826673e+001
1.466622e+003,7.835661e+001
1.469515e+003,7.489983e+001
1.472408e+003,7.777891e+001
1.475301e+003,8.153992e+001
1.478193e+003,8.249096e+001
1.481086e+003,8.710881e+001
1.483979e+003,9.057539e+001
1.486872e+003,9.215894e+001
1.489764e+003,9.297639e+001
1.492657e+003,9.326144e+001
1.495550e+003,9.343138e+001
1.498443e+003,9.354183e+001
1.501335e+003,9.340321e+001
1.504228e+003,9.335258e+001
1.507121e+003,9.381599e+001
1.510014e+003,9.351008e+001
1.512906e+003,9.353338e+001
1.515799e+003,9.367571e+001
1.518692e+003,9.377290e+001
1.521584e+003,9.407954e+001
1.524477e+003,9.394217e+001
1.527370e+003,9.400137e+001
1.530263e+003,9.407157e+001
1.533156e+003,9.414776e+001
1.536048e+003,9.413214e+001
1.538941e+003,9.429480e+001
1.541834e+003,9.428083e+001
1.544726e+003,9.419497e+001
1.547619e+003,9.409391e+001
1.550512e+003,9.417664e+001
1.553405e+003,9.406173e+001
1.556297e+003,9.412957e+001
1.559190e+003,9.471944e+001
1.562083e+003,9.406207e+001
1.564976e+003,9.398550e+001
1.567869e+003,9.388266e+001
1.570761e+003,9.386083e+001
1.573654e+003,9.374696e+001
1.576547e+003,9.388008e+001
1.579439e+003,9.351518e+001
1.582332e+003,9.337002e+001
1.585225e+003,9.333444e+001
1.588118e+003,9.322813e+001
1.591010e+003,9.307378e+001
1.593903e+003,9.296837e+001
1.596796e+003,9.280650e+001
1.599689e+003,9.264643e+001
1.602581e+003,9.255249e+001
1.605474e+003,9.239067e+001
1.608367e+003,9.220406e+001
1.611260e+003,9.202988e+001
1.614152e+003,9.188161e+001
1.617045e+003,9.201008e+001
1.619938e+003,9.155466e+001
1.622831e+003,9.147798e+001
1.625723e+003,9.123289e+001
1.628616e+003,9.103048e+001
1.631509e+003,9.086166e+001
1.634402e+003,9.068594e+001
1.637294e+003,9.084760e+001
1.640187e+003,9.058414e+001
1.643080e+003,9.051320e+001
1.645973e+003,9.052217e+001
1.648865e+003,9.039342e+001
1.651758e+003,8.996973e+001
1.654651e+003,8.998470e+001
1.657544e+003,8.938963e+001
1.660436e+003,8.895479e+001
1.663329e+003,8.845875e+001
1.666222e+003,8.760526e+001
1.669115e+003,8.690849e+001
1.672007e+003,8.569234e+001
1.674900e+003,8.426625e+001
1.677793e+003,8.233913e+001
1.680686e+003,8.000533e+001
1.683578e+003,7.787030e+001
1.686471e+003,7.573082e+001
1.689364e+003,7.393785e+001
1.692257e+003,7.222631e+001
1.695149e+003,7.038049e+001
1.698042e+003,6.779721e+001
1.700935e+003,6.445358e+001
1.703828e+003,6.113424e+001
1.706720e+003,5.579372e+001
1.709613e+003,4.915212e+001
1.712506e+003,4.018391e+001
1.715399e+003,2.911898e+001
1.718291e+003,1.922765e+001
1.721184e+003,1.712506e+001
1.724077e+003,2.240173e+001
1.726969e+003,3.156534e+001
1.729862e+003,3.873700e+001
1.732755e+003,4.378136e+001
1.735648e+003,5.152517e+001
1.738541e+003,5.796619e+001
1.741433e+003,6.702248e+001
1.744326e+003,7.571598e+001
1.747219e+003,8.254028e+001
1.750111e+003,8.717899e+001
1.753004e+003,9.021608e+001
1.755897e+003,9.177555e+001
1.758790e+003,9.275320e+001
1.761682e+003,9.362411e+001
1.764575e+003,9.385228e+001
1.767468e+003,9.429051e+001
1.770361e+003,9.466959e+001
1.773253e+003,9.521666e+001
1.776146e+003,9.544958e+001
1.779039e+003,9.568939e+001
1.781932e+003,9.600665e+001
1.784824e+003,9.633819e+001
1.787717e+003,9.652147e+001
1.790610e+003,9.678344e+001
1.793503e+003,9.706138e+001
1.796395e+003,9.713357e+001
1.799288e+003,9.737056e+001
1.802181e+003,9.751678e+001
1.805074e+003,9.763867e+001
1.807966e+003,9.772559e+001
1.810859e+003,9.795291e+001
1.813752e+003,9.799106e+001
1.816645e+003,9.817987e+001
1.819537e+003,9.809137e+001
1.822430e+003,9.814930e+001
1.825323e+003,9.828254e+001
1.828216e+003,9.835835e+001
1.831108e+003,9.832493e+001
1.834001e+003,9.828105e+001
1.836894e+003,9.835688e+001
1.839787e+003,9.820087e+001
1.842679e+003,9.832611e+001
1.845572e+003,9.844466e+001
1.848465e+003,9.836264e+001
1.851358e+003,9.849026e+001
1.854250e+003,9.861911e+001
1.857143e+003,9.859640e+001
1.860036e+003,9.867646e+001
1.862929e+003,9.869033e+001
1.865821e+003,9.866899e+001
1.868714e+003,9.851931e+001
1.871607e+003,9.863476e+001
1.874500e+003,9.862533e+001
1.877392e+003,9.861476e+001
1.880285e+003,9.870663e+001
1.883178e+003,9.854974e+001
1.886071e+003,9.847950e+001
1.888963e+003,9.869201e+001
1.891856e+003,9.861608e+001
1.894749e+003,9.862191e+001
1.897642e+003,9.861166e+001
1.900534e+003,9.870201e+001
1.903427e+003,9.856437e+001
1.906320e+003,9.869348e+001
1.909213e+003,9.851247e+001
1.912105e+003,9.847506e+001
1.914998e+003,9.861245e+001
1.917891e+003,9.843793e+001
1.920784e+003,9.840647e+001
1.923676e+003,9.857664e+001
1.926569e+003,9.858413e+001
1.929462e+003,9.858535e+001
1.932354e+003,9.876374e+001
1.935247e+003,9.864706e+001
1.938140e+003,9.875745e+001
1.941033e+003,9.879144e+001
1.943926e+003,9.862758e+001
1.946818e+003,9.871986e+001
1.949711e+003,9.880605e+001
1.952604e+003,9.875260e+001
1.955496e+003,9.884007e+001
1.958389e+003,9.872195e+001
1.961282e+003,9.868803e+001
1.964175e+003,9.856651e+001
1.967068e+003,9.896934e+001
1.969960e+003,9.878350e+001
1.972853e+003,9.868154e+001
1.975746e+003,9.879056e+001
1.978638e+003,9.816553e+001
1.981531e+003,9.861536e+001
1.984424e+003,9.882249e+001
1.987317e+003,9.837244e+001
1.990209e+003,9.860041e+001
1.993102e+003,9.875632e+001
1.995995e+003,9.871873e+001
1.998888e+003,9.843077e+001
2.001780e+003,9.867482e+001
2.004673e+003,9.889339e+001
2.007566e+003,9.854276e+001
2.010459e+003,9.860278e+001
2.013351e+003,9.841886e+001
2.016244e+003,9.850613e+001
2.019137e+003,9.855569e+001
2.022030e+003,9.861405e+001
2.024922e+003,9.862387e+001
2.027815e+003,9.863586e+001
2.030708e+003,9.838851e+001
2.033601e+003,9.845429e+001
2.036493e+003,9.851922e+001
2.039386e+003,9.855628e+001
2.042279e+003,9.825296e+001
2.045172e+003,9.876841e+001
2.048064e+003,9.834074e+001
2.050957e+003,9.819201e+001
2.053850e+003,9.856255e+001
2.056743e+003,9.846582e+001
2.059635e+003,9.859996e+001
2.062528e+003,9.846238e+001
2.065421e+003,9.846449e+001
2.068314e+003,9.840820e+001
2.071206e+003,9.828145e+001
2.074099e+003,9.834808e+001
2.076992e+003,9.831657e+001
2.079885e+003,9.827198e+001
2.082777e+003,9.823734e+001
2.085670e+003,9.818862e+001
2.088563e+003,9.842026e+001
2.091456e+003,9.838380e+001
2.094348e+003,9.821367e+001
2.097241e+003,9.815170e+001
2.100134e+003,9.814977e+001
2.103027e+003,9.833647e+001
2.105919e+003,9.830472e+001
2.108812e+003,9.830460e+001
2.111705e+003,9.838309e+001
2.114598e+003,9.840582e+001
2.117490e+003,9.850088e+001
2.120383e+003,9.870786e+001
2.123276e+003,9.861246e+001
2.126168e+003,9.866061e+001
2.129061e+003,9.885430e+001
2.131954e+003,9.923429e+001
2.134847e+003,9.896549e+001
2.137740e+003,9.898108e+001
2.140632e+003,9.877848e+001
2.143525e+003,9.887515e+001
2.146418e+003,9.911273e+001
2.149311e+003,9.896779e+001
2.152203e+003,9.883465e+001
2.155096e+003,9.894171e+001
2.157989e+003,9.920531e+001
2.160882e+003,9.799731e+001
2.163774e+003,9.816411e+001
2.166667e+003,9.830222e+001
2.169560e+003,9.830005e+001
2.172452e+003,9.882764e+001
2.175345e+003,9.852742e+001
2.178238e+003,9.890960e+001
2.181131e+003,9.873574e+001
2.184023e+003,9.857359e+001
2.186916e+003,9.844064e+001
2.189809e+003,9.844962e+001
2.192702e+003,9.870288e+001
2.195594e+003,9.870288e+001
2.198487e+003,9.862340e+001
2.201380e+003,9.855264e+001
2.204273e+003,9.880282e+001
2.207166e+003,9.865645e+001
2.210058e+003,9.851009e+001
2.212951e+003,9.868789e+001
2.215844e+003,9.856773e+001
2.218736e+003,9.859577e+001
2.221629e+003,9.865243e+001
2.224522e+003,9.848106e+001
2.227415e+003,9.864901e+001
2.230307e+003,9.860078e+001
2.233200e+003,9.864059e+001
2.236093e+003,9.844596e+001
2.238986e+003,9.856284e+001
2.241878e+003,9.863797e+001
2.244771e+003,9.862095e+001
2.247664e+003,9.865166e+001
2.250557e+003,9.856637e+001
2.253449e+003,9.868517e+001
2.256342e+003,9.860052e+001
2.259235e+003,9.858459e+001
2.262128e+003,9.834898e+001
2.265020e+003,9.857306e+001
2.267913e+003,9.847838e+001
2.270806e+003,9.845520e+001
2.273699e+003,9.832958e+001
2.276591e+003,9.839165e+001
2.279484e+003,9.836956e+001
2.282377e+003,9.824428e+001
2.285270e+003,9.818048e+001
2.288162e+003,9.813290e+001
2.291055e+003,9.789590e+001
2.293948e+003,9.787749e+001
2.296841e+003,9.766585e+001
2.299733e+003,9.760997e+001
2.302626e+003,9.730591e+001
2.305519e+003,9.717302e+001
2.308412e+003,9.661496e+001
2.311304e+003,9.629992e+001
2.314197e+003,9.606488e+001
2.317090e+003,9.549187e+001
2.319983e+003,9.487860e+001
2.322875e+003,9.419832e+001
2.325768e+003,9.424137e+001
2.328661e+003,9.383677e+001
2.331553e+003,9.344111e+001
2.334446e+003,9.355072e+001
2.337339e+003,9.321038e+001
2.340232e+003,9.302376e+001
2.343125e+003,9.293846e+001
2.346017e+003,9.377323e+001
2.348910e+003,9.524406e+001
2.351803e+003,9.341689e+001
2.354696e+003,9.228985e+001
2.357588e+003,9.134515e+001
2.360481e+003,9.128784e+001
2.363374e+003,9.147807e+001
2.366267e+003,9.250642e+001
2.369159e+003,9.320888e+001
2.372052e+003,9.471455e+001
2.374945e+003,9.565099e+001
2.377837e+003,9.669279e+001
2.380730e+003,9.750751e+001
2.383623e+003,9.824713e+001
2.386516e+003,9.858253e+001
2.389408e+003,9.873273e+001
2.392301e+003,9.865821e+001
2.395194e+003,9.872158e+001
2.398087e+003,9.867454e+001
2.400979e+003,9.863432e+001
2.403872e+003,9.864552e+001
2.406765e+003,9.853205e+001
2.409658e+003,9.848549e+001
2.412551e+003,9.842711e+001
2.415443e+003,9.845868e+001
2.418336e+003,9.852338e+001
2.421229e+003,9.846722e+001
2.424121e+003,9.852184e+001
2.427014e+003,9.854520e+001
2.429907e+003,9.865116e+001
2.432800e+003,9.849177e+001
2.435692e+003,9.864573e+001
2.438585e+003,9.858305e+001
2.441478e+003,9.862108e+001
2.444371e+003,9.858984e+001
2.447263e+003,9.853699e+001
2.450156e+003,9.861716e+001
2.453049e+003,9.858504e+001
2.455942e+003,9.848386e+001
2.458834e+003,9.862264e+001
2.461727e+003,9.857888e+001
2.464620e+003,9.852160e+001
2.467513e+003,9.851376e+001
2.470405e+003,9.854745e+001
2.473298e+003,9.852026e+001
2.476191e+003,9.848277e+001
2.479084e+003,9.846453e+001
2.481976e+003,9.852066e+001
2.484869e+003,9.842505e+001
2.487762e+003,9.847694e+001
2.490655e+003,9.847514e+001
2.493547e+003,9.850188e+001
2.496440e+003,9.845097e+001
2.499333e+003,9.843943e+001
2.502226e+003,9.844660e+001
2.505118e+003,9.852675e+001
2.508011e+003,9.849989e+001
2.510904e+003,9.848906e+001
2.513797e+003,9.840414e+001
2.516689e+003,9.850749e+001
2.519582e+003,9.842722e+001
2.522475e+003,9.837638e+001
2.525368e+003,9.836285e+001
2.528260e+003,9.836220e+001
2.531153e+003,9.833335e+001
2.534046e+003,9.828316e+001
2.536938e+003,9.825994e+001
2.539831e+003,9.817570e+001
2.542724e+003,9.831995e+001
2.545617e+003,9.830439e+001
2.548510e+003,9.830128e+001
2.551402e+003,9.827473e+001
2.554295e+003,9.835645e+001
2.557188e+003,9.826223e+001
2.560081e+003,9.825920e+001
2.562973e+003,9.838317e+001
2.565866e+003,9.815797e+001
2.568759e+003,9.818035e+001
2.571652e+003,9.815572e+001
2.574544e+003,9.819287e+001
2.577437e+003,9.809594e+001
2.580330e+003,9.813226e+001
2.583222e+003,9.819940e+001
2.586115e+003,9.820535e+001
2.589008e+003,9.820190e+001
2.591901e+003,9.814871e+001
2.594793e+003,9.820896e+001
2.597686e+003,9.807542e+001
2.600579e+003,9.820793e+001
2.603472e+003,9.808524e+001
2.606365e+003,9.812260e+001
2.609257e+003,9.806226e+001
2.612150e+003,9.806767e+001
2.615043e+003,9.805443e+001
2.617936e+003,9.802612e+001
2.620828e+003,9.807359e+001
2.623721e+003,9.805453e+001
2.626614e+003,9.796942e+001
2.629506e+003,9.798568e+001
2.632399e+003,9.796069e+001
2.635292e+003,9.788792e+001
2.638185e+003,9.789206e+001
2.641077e+003,9.790250e+001
2.643970e+003,9.782358e+001
2.646863e+003,9.785921e+001
2.649756e+003,9.780035e+001
2.652648e+003,9.783978e+001
2.655541e+003,9.778651e+001
2.658434e+003,9.784091e+001
2.661327e+003,9.784117e+001
2.664219e+003,9.788071e+001
2.667112e+003,9.792339e+001
2.670005e+003,9.787980e+001
2.672898e+003,9.784308e+001
2.675790e+003,9.778313e+001
2.678683e+003,9.787152e+001
2.681576e+003,9.785667e+001
2.684469e+003,9.781532e+001
2.687361e+003,9.783990e+001
2.690254e+003,9.774806e+001
2.693147e+003,9.780178e+001
2.696040e+003,9.784428e+001
2.698932e+003,9.772851e+001
2.701825e+003,9.779719e+001
2.704718e+003,9.775851e+001
2.707611e+003,9.766145e+001
2.710503e+003,9.772606e+001
2.713396e+003,9.765173e+001
2.716289e+003,9.765488e+001
2.719182e+003,9.762894e+001
2.722074e+003,9.769370e+001
2.724967e+003,9.768103e+001
2.727860e+003,9.763381e+001
2.730753e+003,9.761098e+001
2.733645e+003,9.758067e+001
2.736538e+003,9.755717e+001
2.739431e+003,9.762085e+001
2.742323e+003,9.758973e+001
2.745216e+003,9.750352e+001
2.748109e+003,9.741651e+001
2.751002e+003,9.748199e+001
2.753895e+003,9.738457e+001
2.756787e+003,9.741573e+001
2.759680e+003,9.741286e+001
2.762573e+003,9.742919e+001
2.765466e+003,9.732307e+001
2.768358e+003,9.726939e+001
2.771251e+003,9.733992e+001
2.774144e+003,9.722797e+001
2.777037e+003,9.718884e+001
2.779929e+003,9.718695e+001
2.782822e+003,9.714046e+001
2.785715e+003,9.714632e+001
2.788607e+003,9.710339e+001
2.791500e+003,9.705471e+001
2.794393e+003,9.697974e+001
2.797286e+003,9.686668e+001
2.800178e+003,9.678745e+001
2.803071e+003,9.675603e+001
2.805964e+003,9.666199e+001
2.808857e+003,9.647213e+001
2.811750e+003,9.628136e+001
2.814642e+003,9.614046e+001
2.817535e+003,9.592790e+001
2.820428e+003,9.572550e+001
2.823321e+003,9.548997e+001
2.826213e+003,9.530203e+001
2.829106e+003,9.506693e+001
2.831999e+003,9.478109e+001
2.834891e+003,9.442966e+001
2.837784e+003,9.385543e+001
2.840677e+003,9.310764e+001
2.843570e+003,9.211588e+001
2.846462e+003,9.075606e+001
2.849355e+003,8.892653e+001
2.852248e+003,8.693431e+001
2.855141e+003,8.487164e+001
2.858033e+003,8.291624e+001
2.860926e+003,8.102958e+001
2.863819e+003,7.982884e+001
2.866712e+003,8.001752e+001
2.869604e+003,8.134023e+001
2.872497e+003,8.346722e+001
2.875390e+003,8.563325e+001
2.878283e+003,8.707483e+001
2.881175e+003,8.768300e+001
2.884068e+003,8.784756e+001
2.886961e+003,8.718387e+001
2.889854e+003,8.577199e+001
2.892746e+003,8.425302e+001
2.895639e+003,8.371662e+001
2.898532e+003,8.420495e+001
2.901425e+003,8.423512e+001
2.904317e+003,8.352798e+001
2.907210e+003,8.263456e+001
2.910103e+003,8.170579e+001
2.912996e+003,8.088059e+001
2.915888e+003,7.987042e+001
2.918781e+003,7.860340e+001
2.921674e+003,7.715632e+001
2.924567e+003,7.596230e+001
2.927459e+003,7.521154e+001
2.930352e+003,7.444396e+001
2.933245e+003,7.331516e+001
2.936137e+003,7.239700e+001
2.939030e+003,7.201185e+001
2.941923e+003,7.166147e+001
2.944816e+003,7.165854e+001
2.947708e+003,7.239552e+001
2.950601e+003,7.401697e+001
2.953494e+003,7.531976e+001
2.956387e+003,7.674061e+001
2.959280e+003,7.886131e+001
2.962172e+003,8.140466e+001
2.965065e+003,8.348782e+001
2.967958e+003,8.553658e+001
2.970851e+003,8.757587e+001
2.973743e+003,8.937524e+001
2.976636e+003,9.095098e+001
2.979529e+003,9.207634e+001
2.982422e+003,9.306359e+001
2.985314e+003,9.383987e+001
2.988207e+003,9.449110e+001
2.991100e+003,9.492286e+001
2.993992e+003,9.539938e+001
2.996885e+003,9.576466e+001
2.999778e+003,9.596739e+001
3.002671e+003,9.622011e+001
3.005563e+003,9.640688e+001
3.008456e+003,9.659604e+001
3.011349e+003,9.669645e+001
3.014242e+003,9.670708e+001
3.017135e+003,9.676009e+001
3.020027e+003,9.674504e+001
3.022920e+003,9.692132e+001
3.025813e+003,9.687861e+001
3.028706e+003,9.699144e+001
3.031598e+003,9.688425e+001
3.034491e+003,9.697952e+001
3.037384e+003,9.699219e+001
3.040276e+003,9.703259e+001
3.043169e+003,9.689779e+001
3.046062e+003,9.700600e+001
3.048955e+003,9.709572e+001
3.051847e+003,9.702757e+001
3.054740e+003,9.694030e+001
3.057633e+003,9.689840e+001
3.060526e+003,9.697227e+001
3.063418e+003,9.694164e+001
3.066311e+003,9.704171e+001
3.069204e+003,9.704150e+001
3.072097e+003,9.697455e+001
3.074990e+003,9.707924e+001
3.077882e+003,9.700945e+001
3.080775e+003,9.701314e+001
3.083668e+003,9.703717e+001
3.086560e+003,9.705512e+001
3.089453e+003,9.701761e+001
3.092346e+003,9.702042e+001
3.095239e+003,9.700095e+001
3.098131e+003,9.699763e+001
3.101024e+003,9.700465e+001
3.103917e+003,9.701496e+001
3.106810e+003,9.693795e+001
3.109702e+003,9.694052e+001
3.112595e+003,9.697808e+001
3.115488e+003,9.702218e+001
3.118381e+003,9.700893e+001
3.121273e+003,9.686360e+001
3.124166e+003,9.693407e+001
3.127059e+003,9.697611e+001
3.129952e+003,9.696663e+001
3.132844e+003,9.688011e+001
3.135737e+003,9.697784e+001
3.138630e+003,9.691454e+001
3.141522e+003,9.693067e+001
3.144415e+003,9.687332e+001
3.147308e+003,9.699375e+001
3.150201e+003,9.696283e+001
3.153094e+003,9.687076e+001
3.155986e+003,9.691883e+001
3.158879e+003,9.694733e+001
3.161772e+003,9.700201e+001
3.164665e+003,9.690499e+001
3.167557e+003,9.697340e+001
3.170450e+003,9.691830e+001
3.173343e+003,9.690268e+001
3.176236e+003,9.674736e+001
3.179128e+003,9.680573e+001
3.182021e+003,9.685371e+001
3.184914e+003,9.694946e+001
3.187806e+003,9.691123e+001
3.190699e+003,9.682621e+001
3.193592e+003,9.681602e+001
3.196485e+003,9.680677e+001
3.199377e+003,9.681252e+001
3.202270e+003,9.682257e+001
3.205163e+003,9.675603e+001
3.208056e+003,9.674641e+001
3.210948e+003,9.681937e+001
3.213841e+003,9.681910e+001
3.216734e+003,9.684431e+001
3.219627e+003,9.684763e+001
3.222520e+003,9.671136e+001
3.225412e+003,9.682547e+001
3.228305e+003,9.687840e+001
3.231198e+003,9.672094e+001
3.234091e+003,9.677775e+001
3.236983e+003,9.678341e+001
3.239876e+003,9.670663e+001
3.242769e+003,9.673595e+001
3.245661e+003,9.671352e+001
3.248554e+003,9.685271e+001
3.251447e+003,9.666861e+001
3.254340e+003,9.661446e+001
3.257232e+003,9.668739e+001
3.260125e+003,9.676569e+001
3.263018e+003,9.676553e+001
3.265911e+003,9.675679e+001
3.268803e+003,9.679461e+001
3.271696e+003,9.668035e+001
3.274589e+003,9.681163e+001
3.277482e+003,9.665719e+001
3.280375e+003,9.672346e+001
3.283267e+003,9.675225e+001
3.286160e+003,9.658169e+001
3.289053e+003,9.668507e+001
3.291945e+003,9.667308e+001
3.294838e+003,9.668665e+001
3.297731e+003,9.669751e+001
3.300624e+003,9.669683e+001
3.303516e+003,9.677125e+001
3.306409e+003,9.680913e+001
3.309302e+003,9.670706e+001
3.312195e+003,9.671954e+001
3.315087e+003,9.688341e+001
3.317980e+003,9.673031e+001
3.320873e+003,9.674951e+001
3.323766e+003,9.674905e+001
3.326658e+003,9.674098e+001
3.329551e+003,9.674611e+001
3.332444e+003,9.675071e+001
3.335337e+003,9.679195e+001
3.338229e+003,9.677186e+001
3.341122e+003,9.664134e+001
3.344015e+003,9.675124e+001
3.346907e+003,9.680884e+001
3.349800e+003,9.669474e+001
3.352693e+003,9.671897e+001
3.355586e+003,9.683720e+001
3.358479e+003,9.674231e+001
3.361371e+003,9.677465e+001
3.364264e+003,9.684101e+001
3.367157e+003,9.680565e+001
3.370050e+003,9.680999e+001
3.372942e+003,9.679183e+001
3.375835e+003,9.680898e+001
3.378728e+003,9.685380e+001
3.381621e+003,9.694871e+001
3.384513e+003,9.688432e+001
3.387406e+003,9.687590e+001
3.390299e+003,9.684176e+001
3.393191e+003,9.692722e+001
3.396084e+003,9.679887e+001
3.398977e+003,9.685282e+001
3.401870e+003,9.684750e+001
3.404762e+003,9.697472e+001
3.407655e+003,9.684117e+001
3.410548e+003,9.693951e+001
3.413441e+003,9.674351e+001
3.416333e+003,9.691485e+001
3.419226e+003,9.683234e+001
3.422119e+003,9.681695e+001
3.425012e+003,9.657825e+001
3.427905e+003,9.657142e+001
3.430797e+003,9.650703e+001
3.433690e+003,9.639671e+001
3.436583e+003,9.623335e+001
3.439475e+003,9.633465e+001
3.442368e+003,9.647266e+001
3.445261e+003,9.653794e+001
3.448154e+003,9.655626e+001
3.451046e+003,9.666051e+001
3.453939e+003,9.678867e+001
3.456832e+003,9.669678e+001
3.459725e+003,9.682714e+001
3.462617e+003,9.694504e+001
3.465510e+003,9.703868e+001
3.468403e+003,9.707375e+001
3.471296e+003,9.709171e+001
3.474188e+003,9.714114e+001
3.477081e+003,9.738265e+001
3.479974e+003,9.714143e+001
3.482867e+003,9.734768e+001
3.485760e+003,9.727364e+001
3.488652e+003,9.738260e+001
3.491545e+003,9.743270e+001
3.494438e+003,9.729337e+001
3.497330e+003,9.741918e+001
3.500223e+003,9.751813e+001
3.503116e+003,9.742657e+001
3.506009e+003,9.754046e+001
3.508901e+003,9.749039e+001
3.511794e+003,9.764999e+001
3.514687e+003,9.760490e+001
3.517580e+003,9.758627e+001
3.520472e+003,9.761102e+001
3.523365e+003,9.766588e+001
3.526258e+003,9.767079e+001
3.529151e+003,9.755080e+001
3.532043e+003,9.776384e+001
3.534936e+003,9.765442e+001
3.537829e+003,9.767014e+001
3.540722e+003,9.788309e+001
3.543614e+003,9.754976e+001
3.546507e+003,9.772605e+001
3.549400e+003,9.792867e+001
3.552292e+003,9.786771e+001
3.555185e+003,9.793526e+001
3.558078e+003,9.789562e+001
3.560971e+003,9.803584e+001
3.563864e+003,9.797853e+001
3.566756e+003,9.812422e+001
3.569649e+003,9.809399e+001
3.572542e+003,9.800938e+001
3.575435e+003,9.814298e+001
3.578327e+003,9.817486e+001
3.581220e+003,9.825169e+001
3.584113e+003,9.812664e+001
3.587006e+003,9.834563e+001
3.589898e+003,9.818793e+001
3.592791e+003,9.807098e+001
3.595684e+003,9.817699e+001
3.598576e+003,9.810733e+001
3.601469e+003,9.808072e+001
3.604362e+003,9.810347e+001
3.607255e+003,9.826311e+001
3.610147e+003,9.834123e+001
3.613040e+003,9.846847e+001
3.615933e+003,9.841376e+001
3.618826e+003,9.845934e+001
3.621719e+003,9.838628e+001
3.624611e+003,9.830006e+001
3.627504e+003,9.821555e+001
3.630397e+003,9.829546e+001
3.633290e+003,9.829616e+001
3.636182e+003,9.842828e+001
3.639075e+003,9.861665e+001
3.641968e+003,9.877922e+001
3.644860e+003,9.886135e+001
3.647753e+003,9.914059e+001
3.650646e+003,9.917264e+001
3.653539e+003,9.895052e+001
3.656431e+003,9.914249e+001
3.659324e+003,9.895538e+001
3.662217e+003,9.899947e+001
3.665110e+003,9.915726e+001
3.668002e+003,9.897815e+001
3.670895e+003,9.927220e+001
3.673788e+003,9.897186e+001
3.676681e+003,9.910191e+001
3.679573e+003,9.914438e+001
3.682466e+003,9.893653e+001
3.685359e+003,9.910934e+001
3.688252e+003,9.922589e+001
3.691145e+003,9.934724e+001
3.694037e+003,9.905481e+001
3.696930e+003,9.898491e+001
3.699823e+003,9.884390e+001
3.702715e+003,9.901604e+001
3.705608e+003,9.891613e+001
3.708501e+003,9.880423e+001
3.711394e+003,9.903988e+001
3.714286e+003,9.925677e+001
3.717179e+003,9.914140e+001
3.720072e+003,9.899626e+001
3.722965e+003,9.890609e+001
3.725857e+003,9.891089e+001
3.728750e+003,9.893947e+001
3.731643e+003,9.900491e+001
3.734536e+003,9.878220e+001
3.737428e+003,9.918246e+001
3.740321e+003,9.904774e+001
3.743214e+003,9.898673e+001
3.746107e+003,9.931917e+001
3.748999e+003,9.940166e+001
3.751892e+003,9.945896e+001
3.754785e+003,9.918859e+001
3.757677e+003,9.934327e+001
3.760570e+003,9.938382e+001
3.763463e+003,9.921233e+001
3.766356e+003,9.929981e+001
3.769249e+003,9.926418e+001
3.772141e+003,9.929842e+001
3.775034e+003,9.930737e+001
3.777927e+003,9.927237e+001
3.780820e+003,9.926607e+001
3.783712e+003,9.930385e+001
3.786605e+003,9.930272e+001
3.789498e+003,9.942909e+001
3.792391e+003,9.926754e+001
3.795283e+003,9.919557e+001
3.798176e+003,9.927731e+001
3.801069e+003,9.918794e+001
3.803961e+003,9.938358e+001
3.806854e+003,9.941362e+001
3.809747e+003,9.929754e+001
3.812640e+003,9.936880e+001
3.815532e+003,9.943555e+001
3.818425e+003,9.928683e+001
3.821318e+003,9.936477e+001
3.824211e+003,9.923460e+001
3.827104e+003,9.930721e+001
3.829996e+003,9.924853e+001
3.832889e+003,9.932114e+001
3.835782e+003,9.926640e+001
3.838675e+003,9.953103e+001
3.841567e+003,9.921829e+001
3.844460e+003,9.927847e+001
3.847353e+003,9.918684e+001
3.850245e+003,9.920582e+001
3.853138e+003,9.953347e+001
3.856031e+003,9.914312e+001
3.858924e+003,9.918333e+001
3.861816e+003,9.933836e+001
3.864709e+003,9.945116e+001
3.867602e+003,9.937126e+001
3.870495e+003,9.961855e+001
3.873387e+003,9.938507e+001
3.876280e+003,9.919762e+001
3.879173e+003,9.924651e+001
3.882066e+003,9.926037e+001
3.884958e+003,9.910123e+001
3.887851e+003,9.922828e+001
3.890744e+003,9.926785e+001
3.893637e+003,9.918745e+001
3.896529e+003,9.909116e+001
3.899422e+003,9.944273e+001
3.902315e+003,9.913185e+001
3.905208e+003,9.942955e+001
3.908100e+003,9.917413e+001
3.910993e+003,9.925076e+001
3.913886e+003,9.928059e+001
3.916779e+003,9.928304e+001
3.919671e+003,9.923159e+001
3.922564e+003,9.918081e+001
3.925457e+003,9.934776e+001
3.928350e+003,9.926678e+001
3.931242e+003,9.923196e+001
3.934135e+003,9.926490e+001
3.937028e+003,9.908366e+001
3.939921e+003,9.921730e+001
3.942813e+003,9.920702e+001
3.945706e+003,9.922997e+001
3.948599e+003,9.927094e+001
3.951492e+003,9.930076e+001
3.954384e+003,9.925032e+001
3.957277e+003,9.920035e+001
3.960170e+003,9.912750e+001
3.963063e+003,9.919958e+001
3.965955e+003,9.916375e+001
3.968848e+003,9.920918e+001
3.971741e+003,9.919772e+001
3.974634e+003,9.923795e+001
3.977526e+003,9.918347e+001
3.980419e+003,9.910709e+001
3.983312e+003,9.926104e+001
3.986205e+003,9.925388e+001
3.989097e+003,9.931153e+001
3.991990e+003,9.914709e+001
3.994883e+003,9.922082e+001
3.997776e+003,9.917245e+001
4.000668e+003,0.000000e+000