File: FTIR Data (PCL)/All Data/PCL_NaOH_PDA_2_3.CSV
3.991989e+002,0.000000e+000
4.020916e+002,0.000000e+000
4.049844e+002,0.000000e+000
4.078771e+002,0.000000e+000
4.107699e+002,0.000000e+000
4.136626e+002,0.000000e+000
4.165554e+002,0.000000e+000
4.194481e+002,0.000000e+000
4.223409e+002,0.000000e+000
4.252336e+002,0.000000e+000
4.281263e+002,0.000000e+000
4.310191e+002,0.000000e+000
4.339118e+002,0.000000e+000
4.368046e+002,0.000000e+000
4.396973e+002,0.000000e+000
4.425901e+002,0.000000e+000
4.454828e+002,0.000000e+000
4.483756e+002,0.000000e+000
4.512683e+002,0.000000e+000
4.541611e+002,0.000000e+000
4.570538e+002,0.000000e+000
4.599466e+002,0.000000e+000
4.628393e+002,0.000000e+000
4.657321e+002,0.000000e+000
4.686248e+002,0.000000e+000
4.715175e+002,0.000000e+000
4.744103e+002,0.000000e+000
4.773030e+002,0.000000e+000
4.801958e+002,0.000000e+000
4.830885e+002,0.000000e+000
4.859813e+002,0.000000e+000
4.888740e+002,0.000000e+000
4.917668e+002,0.000000e+000
4.946595e+002,0.000000e+000
4.975523e+002,0.000000e+000
5.004450e+002,0.000000e+000
5.033378e+002,0.000000e+000
5.062305e+002,0.000000e+000
5.091233e+002,0.000000e+000
5.120160e+002,0.000000e+000
5.149088e+002,0.000000e+000
5.178015e+002,0.000000e+000
5.206942e+002,0.000000e+000
5.235870e+002,0.000000e+000
5.264797e+002,0.000000e+000
5.293725e+002,0.000000e+000
5.322652e+002,0.000000e+000
5.351580e+002,0.000000e+000
5.380507e+002,0.000000e+000
5.409435e+002,0.000000e+000
5.438362e+002,0.000000e+000
5.467289e+002,0.000000e+000
5.496217e+002,8.307036e+001
5.525145e+002,8.438436e+001
5.554072e+002,8.564121e+001
5.582999e+002,8.339910e+001
5.611927e+002,8.403577e+001
5.640854e+002,8.298701e+001
5.669782e+002,8.178581e+001
5.698709e+002,8.209430e+001
5.727637e+002,8.101132e+001
5.756564e+002,7.791826e+001
5.785492e+002,8.091074e+001
5.814419e+002,7.824635e+001
5.843347e+002,7.617802e+001
5.872274e+002,7.915456e+001
5.901202e+002,8.139233e+001
5.930129e+002,8.138110e+001
5.959056e+002,8.211333e+001
5.987984e+002,8.323897e+001
6.016912e+002,8.308263e+001
6.045839e+002,8.314207e+001
6.074766e+002,8.433665e+001
6.103694e+002,8.381811e+001
6.132621e+002,8.424357e+001
6.161548e+002,8.411560e+001
6.190476e+002,8.519226e+001
6.219404e+002,8.529651e+001
6.248331e+002,8.472269e+001
6.277258e+002,8.492475e+001
6.306186e+002,8.485771e+001
6.335114e+002,8.514870e+001
6.364041e+002,8.498695e+001
6.392968e+002,8.471006e+001
6.421896e+002,8.456373e+001
6.450823e+002,8.426945e+001
6.479751e+002,8.427521e+001
6.508679e+002,8.424781e+001
6.537606e+002,8.433434e+001
6.566533e+002,8.456090e+001
6.595461e+002,8.481218e+001
6.624388e+002,8.432154e+001
6.653315e+002,8.482050e+001
6.682243e+002,7.931977e+001
6.711171e+002,8.435060e+001
6.740098e+002,8.417202e+001
6.769025e+002,8.367944e+001
6.797953e+002,8.324500e+001
6.826880e+002,8.296300e+001
6.855808e+002,8.236765e+001
6.884735e+002,8.191737e+001
6.913663e+002,8.121327e+001
6.942590e+002,8.029582e+001
6.971518e+002,7.916674e+001
7.000445e+002,7.782643e+001
7.029373e+002,7.599356e+001
7.058300e+002,7.378424e+001
7.087228e+002,7.250075e+001
7.116155e+002,7.301920e+001
7.145082e+002,7.474638e+001
7.174010e+002,7.540183e+001
7.202938e+002,7.410467e+001
7.231865e+002,6.970741e+001
7.260792e+002,6.234288e+001
7.289720e+002,5.980570e+001
7.318647e+002,5.741491e+001
7.347575e+002,6.402610e+001
7.376502e+002,7.139326e+001
7.405430e+002,7.674873e+001
7.434357e+002,8.061681e+001
7.463285e+002,8.289336e+001
7.492212e+002,8.434473e+001
7.521140e+002,8.534837e+001
7.550067e+002,8.607742e+001
7.578995e+002,8.656744e+001
7.607922e+002,8.673396e+001
7.636849e+002,8.631736e+001
7.665777e+002,8.548118e+001
7.694705e+002,8.461310e+001
7.723632e+002,8.406953e+001
7.752559e+002,8.437824e+001
7.781487e+002,8.527831e+001
7.810414e+002,8.603297e+001
7.839341e+002,8.639902e+001
7.868269e+002,8.666581e+001
7.897197e+002,8.670035e+001
7.926124e+002,8.672926e+001
7.955051e+002,8.670596e+001
7.983979e+002,8.665656e+001
8.012906e+002,8.645682e+001
8.041834e+002,8.656039e+001
8.070761e+002,8.646672e+001
8.099689e+002,8.638783e+001
8.128616e+002,8.649956e+001
8.157544e+002,8.646936e+001
8.186472e+002,8.639871e+001
8.215399e+002,8.622188e+001
8.244326e+002,8.600194e+001
8.273254e+002,8.572692e+001
8.302181e+002,8.509018e+001
8.331108e+002,8.383186e+001
8.360036e+002,8.169860e+001
8.388964e+002,7.856612e+001
8.417891e+002,7.933540e+001
8.446818e+002,8.324843e+001
8.475746e+002,8.448017e+001
8.504673e+002,8.479180e+001
8.533601e+002,8.470031e+001
8.562528e+002,8.461068e+001
8.591456e+002,8.458545e+001
8.620383e+002,8.438422e+001
8.649311e+002,8.433965e+001
8.678238e+002,8.415023e+001
8.707166e+002,8.403059e+001
8.736093e+002,8.392275e+001
8.765021e+002,8.393978e+001
8.793948e+002,8.379552e+001
8.822875e+002,8.370861e+001
8.851803e+002,8.352676e+001
8.880731e+002,8.344769e+001
8.909658e+002,8.330913e+001
8.938585e+002,8.327984e+001
8.967513e+002,8.312489e+001
8.996440e+002,8.288298e+001
9.025368e+002,8.260577e+001
9.054295e+002,8.219019e+001
9.083223e+002,8.177810e+001
9.112150e+002,8.110019e+001
9.141078e+002,8.035211e+001
9.170005e+002,7.972035e+001
9.198932e+002,7.873261e+001
9.227860e+002,7.732506e+001
9.256788e+002,7.524023e+001
9.285715e+002,7.234465e+001
9.314642e+002,6.896032e+001
9.343570e+002,6.780776e+001
9.372498e+002,7.090263e+001
9.401425e+002,7.365878e+001
9.430352e+002,7.394228e+001
9.459280e+002,7.260796e+001
9.488207e+002,7.011054e+001
9.517134e+002,6.657089e+001
9.546062e+002,6.243398e+001
9.574990e+002,5.809319e+001
9.603917e+002,5.550471e+001
9.632844e+002,5.886550e+001
9.661772e+002,6.621053e+001
9.690699e+002,7.054191e+001
9.719627e+002,7.287424e+001
9.748554e+002,7.455265e+001
9.777482e+002,7.617448e+001
9.806409e+002,7.710205e+001
9.835337e+002,7.731696e+001
9.864265e+002,7.718872e+001
9.893192e+002,7.691625e+001
9.922119e+002,7.680534e+001
9.951047e+002,7.676237e+001
9.979974e+002,7.674077e+001
1.000890e+003,7.644655e+001
1.003783e+003,7.607416e+001
1.006676e+003,7.559512e+001
1.009568e+003,7.495838e+001
1.012461e+003,7.425143e+001
1.015354e+003,7.339296e+001
1.018247e+003,7.233514e+001
1.021139e+003,7.114851e+001
1.024032e+003,6.963525e+001
1.026925e+003,6.768555e+001
1.029818e+003,6.534444e+001
1.032710e+003,6.283479e+001
1.035603e+003,5.929477e+001
1.038496e+003,5.538263e+001
1.041389e+003,5.120308e+001
1.044281e+003,4.809442e+001
1.047174e+003,4.919208e+001
1.050067e+003,5.651723e+001
1.052960e+003,6.385068e+001
1.055852e+003,6.804008e+001
1.058745e+003,6.908822e+001
1.061638e+003,6.708128e+001
1.064531e+003,6.454752e+001
1.067423e+003,6.571327e+001
1.070316e+003,6.982265e+001
1.073209e+003,7.194157e+001
1.076102e+003,7.201914e+001
1.078994e+003,7.074663e+001
1.081887e+003,6.860116e+001
1.084780e+003,6.624094e+001
1.087673e+003,6.382603e+001
1.090565e+003,6.186837e+001
1.093458e+003,6.053985e+001
1.096351e+003,5.991428e+001
1.099244e+003,5.927179e+001
1.102136e+003,5.786175e+001
1.105029e+003,5.559769e+001
1.107922e+003,5.449258e+001
1.110815e+003,5.822246e+001
1.113707e+003,6.439622e+001
1.116600e+003,6.902734e+001
1.119493e+003,7.103814e+001
1.122385e+003,7.059245e+001
1.125278e+003,6.883372e+001
1.128171e+003,6.641692e+001
1.131064e+003,6.353524e+001
1.133957e+003,6.010889e+001
1.136849e+003,5.622948e+001
1.139742e+003,5.181870e+001
1.142635e+003,4.699796e+001
1.145527e+003,4.183384e+001
1.148420e+003,3.688906e+001
1.151313e+003,3.255530e+001
1.154206e+003,2.924813e+001
1.157099e+003,2.720294e+001
1.159991e+003,2.628849e+001
1.162884e+003,2.624791e+001
1.165777e+003,2.687416e+001
1.168669e+003,2.777020e+001
1.171562e+003,2.888416e+001
1.174455e+003,3.005446e+001
1.177348e+003,3.129334e+001
1.180240e+003,3.282164e+001
1.183133e+003,3.401615e+001
1.186026e+003,3.515472e+001
1.188919e+003,3.818112e+001
1.191811e+003,4.355388e+001
1.194704e+003,5.076526e+001
1.197597e+003,5.871672e+001
1.200490e+003,6.510772e+001
1.203382e+003,6.846372e+001
1.206275e+003,7.015251e+001
1.209168e+003,7.100409e+001
1.212061e+003,7.121474e+001
1.214953e+003,7.092274e+001
1.217846e+003,7.019561e+001
1.220739e+003,6.889292e+001
1.223632e+003,6.680956e+001
1.226524e+003,6.330412e+001
1.229417e+003,5.779458e+001
1.232310e+003,5.043060e+001
1.235203e+003,4.345990e+001
1.238095e+003,4.089191e+001
1.240988e+003,4.328051e+001
1.243881e+003,4.800216e+001
1.246774e+003,5.670848e+001
1.249666e+003,6.649460e+001
1.252559e+003,7.212079e+001
1.255452e+003,7.459347e+001
1.258345e+003,7.593257e+001
1.261237e+003,7.692791e+001
1.264130e+003,7.764311e+001
1.267023e+003,7.786681e+001
1.269916e+003,7.768491e+001
1.272808e+003,7.707105e+001
1.275701e+003,7.620173e+001
1.278594e+003,7.521456e+001
1.281487e+003,7.400468e+001
1.284379e+003,7.220645e+001
1.287272e+003,6.880017e+001
1.290165e+003,6.189905e+001
1.293057e+003,5.683541e+001
1.295950e+003,6.126375e+001
1.298843e+003,6.849967e+001
1.301736e+003,7.385713e+001
1.304629e+003,7.663316e+001
1.307521e+003,7.900900e+001
1.310414e+003,8.090588e+001
1.313307e+003,8.213709e+001
1.316200e+003,8.287965e+001
1.319092e+003,8.321033e+001
1.321985e+003,8.323079e+001
1.324878e+003,8.333720e+001
1.327771e+003,8.400308e+001
1.330663e+003,8.481766e+001
1.333556e+003,8.528912e+001
1.336449e+003,8.519946e+001
1.339342e+003,8.459770e+001
1.342234e+003,8.328838e+001
1.345127e+003,8.131097e+001
1.348020e+003,7.866794e+001
1.350912e+003,7.548088e+001
1.353805e+003,7.249689e+001
1.356698e+003,6.995883e+001
1.359591e+003,6.627025e+001
1.362484e+003,6.230035e+001
1.365376e+003,6.081932e+001
1.368269e+003,6.343763e+001
1.371162e+003,6.786780e+001
1.374054e+003,7.027071e+001
1.376947e+003,7.388059e+001
1.379840e+003,7.937511e+001
1.382733e+003,8.273556e+001
1.385625e+003,8.335962e+001
1.388518e+003,8.204790e+001
1.391411e+003,7.969367e+001
1.394304e+003,7.702629e+001
1.397196e+003,7.552960e+001
1.400089e+003,7.841712e+001
1.402982e+003,8.221532e+001
1.405875e+003,8.437212e+001
1.408767e+003,8.367479e+001
1.411660e+003,8.000569e+001
1.414553e+003,7.604636e+001
1.417446e+003,7.473065e+001
1.420338e+003,7.510506e+001
1.423231e+003,8.024867e+001
1.426124e+003,8.471765e+001
1.429017e+003,8.655819e+001
1.431909e+003,8.658812e+001
1.434802e+003,8.570879e+001
1.437695e+003,8.554037e+001
1.440588e+003,8.623604e+001
1.443480e+003,8.669382e+001
1.446373e+003,8.639496e+001
1.449266e+003,8.582113e+001
1.452159e+003,8.480335e+001
1.455051e+003,8.347870e+001
1.457944e+003,8.107375e+001
1.460837e+003,8.014263e+001
1.463730e+003,7.879530e+001
1.466622e+003,7.886566e+001
1.469515e+003,7.552889e+001
1.472408e+003,7.823696e+001
1.475301e+003,8.186089e+001
1.478193e+003,8.278673e+001
1.481086e+003,8.734933e+001
1.483979e+003,9.068627e+001
1.486872e+003,9.224607e+001
1.489764e+003,9.294678e+001
1.492657e+003,9.322004e+001
1.495550e+003,9.340490e+001
1.498443e+003,9.341320e+001
1.501335e+003,9.330017e+001
1.504228e+003,9.326807e+001
1.507121e+003,9.383994e+001
1.510014e+003,9.343623e+001
1.512906e+003,9.342490e+001
1.515799e+003,9.355981e+001
1.518692e+003,9.362663e+001
1.521584e+003,9.393607e+001
1.524477e+003,9.385780e+001
1.527370e+003,9.387400e+001
1.530263e+003,9.390722e+001
1.533156e+003,9.398105e+001
1.536048e+003,9.401537e+001
1.538941e+003,9.414554e+001
1.541834e+003,9.422613e+001
1.544726e+003,9.400882e+001
1.547619e+003,9.399757e+001
1.550512e+003,9.403702e+001
1.553405e+003,9.394797e+001
1.556297e+003,9.401763e+001
1.559190e+003,9.458654e+001
1.562083e+003,9.393016e+001
1.564976e+003,9.385832e+001
1.567869e+003,9.377467e+001
1.570761e+003,9.372968e+001
1.573654e+003,9.365662e+001
1.576547e+003,9.374454e+001
1.579439e+003,9.338541e+001
1.582332e+003,9.329019e+001
1.585225e+003,9.317920e+001
1.588118e+003,9.313230e+001
1.591010e+003,9.295372e+001
1.593903e+003,9.287019e+001
1.596796e+003,9.270668e+001
1.599689e+003,9.257656e+001
1.602581e+003,9.240192e+001
1.605474e+003,9.227605e+001
1.608367e+003,9.212574e+001
1.611260e+003,9.186996e+001
1.614152e+003,9.182717e+001
1.617045e+003,9.196039e+001
1.619938e+003,9.150284e+001
1.622831e+003,9.148122e+001
1.625723e+003,9.116048e+001
1.628616e+003,9.098145e+001
1.631509e+003,9.078544e+001
1.634402e+003,9.068777e+001
1.637294e+003,9.077211e+001
1.640187e+003,9.054711e+001
1.643080e+003,9.048540e+001
1.645973e+003,9.054888e+001
1.648865e+003,9.039527e+001
1.651758e+003,9.016385e+001
1.654651e+003,9.007188e+001
1.657544e+003,8.940696e+001
1.660436e+003,8.897047e+001
1.663329e+003,8.853653e+001
1.666222e+003,8.769057e+001
1.669115e+003,8.704317e+001
1.672007e+003,8.583349e+001
1.674900e+003,8.450041e+001
1.677793e+003,8.263239e+001
1.680686e+003,8.033527e+001
1.683578e+003,7.828876e+001
1.686471e+003,7.618871e+001
1.689364e+003,7.440083e+001
1.692257e+003,7.277390e+001
1.695149e+003,7.097257e+001
1.698042e+003,6.854158e+001
1.700935e+003,6.526640e+001
1.703828e+003,6.204866e+001
1.706720e+003,5.687838e+001
1.709613e+003,5.047226e+001
1.712506e+003,4.178403e+001
1.715399e+003,3.095509e+001
1.718291e+003,2.110090e+001
1.721184e+003,1.885004e+001
1.724077e+003,2.397561e+001
1.726969e+003,3.305884e+001
1.729862e+003,4.019647e+001
1.732755e+003,4.506542e+001
1.735648e+003,5.269983e+001
1.738541e+003,5.902956e+001
1.741433e+003,6.791695e+001
1.744326e+003,7.647429e+001
1.747219e+003,8.304947e+001
1.750111e+003,8.756561e+001
1.753004e+003,9.046158e+001
1.755897e+003,9.195152e+001
1.758790e+003,9.295831e+001
1.761682e+003,9.370268e+001
1.764575e+003,9.396072e+001
1.767468e+003,9.433949e+001
1.770361e+003,9.471943e+001
1.773253e+003,9.529018e+001
1.776146e+003,9.551608e+001
1.779039e+003,9.569655e+001
1.781932e+003,9.600598e+001
1.784824e+003,9.636406e+001
1.787717e+003,9.647793e+001
1.790610e+003,9.673553e+001
1.793503e+003,9.700939e+001
1.796395e+003,9.707859e+001
1.799288e+003,9.727111e+001
1.802181e+003,9.747427e+001
1.805074e+003,9.758020e+001
1.807966e+003,9.761509e+001
1.810859e+003,9.777489e+001
1.813752e+003,9.784093e+001
1.816645e+003,9.806693e+001
1.819537e+003,9.795697e+001
1.822430e+003,9.806352e+001
1.825323e+003,9.814407e+001
1.828216e+003,9.817009e+001
1.831108e+003,9.824231e+001
1.834001e+003,9.814693e+001
1.836894e+003,9.814198e+001
1.839787e+003,9.809419e+001
1.842679e+003,9.826075e+001
1.845572e+003,9.824160e+001
1.848465e+003,9.826410e+001
1.851358e+003,9.833678e+001
1.854250e+003,9.840532e+001
1.857143e+003,9.857339e+001
1.860036e+003,9.850352e+001
1.862929e+003,9.850100e+001
1.865821e+003,9.847772e+001
1.868714e+003,9.843117e+001
1.871607e+003,9.849473e+001
1.874500e+003,9.850671e+001
1.877392e+003,9.851363e+001
1.880285e+003,9.851245e+001
1.883178e+003,9.834422e+001
1.886071e+003,9.844364e+001
1.888963e+003,9.863203e+001
1.891856e+003,9.843741e+001
1.894749e+003,9.850179e+001
1.897642e+003,9.848066e+001
1.900534e+003,9.854004e+001
1.903427e+003,9.840814e+001
1.906320e+003,9.848910e+001
1.909213e+003,9.844389e+001
1.912105e+003,9.836346e+001
1.914998e+003,9.840887e+001
1.917891e+003,9.842403e+001
1.920784e+003,9.838163e+001
1.923676e+003,9.839419e+001
1.926569e+003,9.846975e+001
1.929462e+003,9.851558e+001
1.932354e+003,9.847839e+001
1.935247e+003,9.855699e+001
1.938140e+003,9.865806e+001
1.941033e+003,9.853683e+001
1.943926e+003,9.828061e+001
1.946818e+003,9.840680e+001
1.949711e+003,9.854882e+001
1.952604e+003,9.852924e+001
1.955496e+003,9.853772e+001
1.958389e+003,9.850991e+001
1.961282e+003,9.850661e+001
1.964175e+003,9.854509e+001
1.967068e+003,9.852425e+001
1.969960e+003,9.867502e+001
1.972853e+003,9.855940e+001
1.975746e+003,9.870103e+001
1.978638e+003,9.792789e+001
1.981531e+003,9.826778e+001
1.984424e+003,9.840133e+001
1.987317e+003,9.847503e+001
1.990209e+003,9.835893e+001
1.993102e+003,9.838230e+001
1.995995e+003,9.850092e+001
1.998888e+003,9.835903e+001
2.001780e+003,9.829582e+001
2.004673e+003,9.855355e+001
2.007566e+003,9.834222e+001
2.010459e+003,9.825073e+001
2.013351e+003,9.820876e+001
2.016244e+003,9.838335e+001
2.019137e+003,9.849554e+001
2.022030e+003,9.846310e+001
2.024922e+003,9.833872e+001
2.027815e+003,9.840112e+001
2.030708e+003,9.823184e+001
2.033601e+003,9.848032e+001
2.036493e+003,9.837054e+001
2.039386e+003,9.821946e+001
2.042279e+003,9.814697e+001
2.045172e+003,9.827533e+001
2.048064e+003,9.813306e+001
2.050957e+003,9.821422e+001
2.053850e+003,9.827628e+001
2.056743e+003,9.823430e+001
2.059635e+003,9.838049e+001
2.062528e+003,9.808702e+001
2.065421e+003,9.824468e+001
2.068314e+003,9.819894e+001
2.071206e+003,9.802239e+001
2.074099e+003,9.819267e+001
2.076992e+003,9.816046e+001
2.079885e+003,9.808879e+001
2.082777e+003,9.811330e+001
2.085670e+003,9.816172e+001
2.088563e+003,9.821196e+001
2.091456e+003,9.813659e+001
2.094348e+003,9.805180e+001
2.097241e+003,9.795815e+001
2.100134e+003,9.808580e+001
2.103027e+003,9.803075e+001
2.105919e+003,9.816978e+001
2.108812e+003,9.816969e+001
2.111705e+003,9.825502e+001
2.114598e+003,9.814760e+001
2.117490e+003,9.838586e+001
2.120383e+003,9.858668e+001
2.123276e+003,9.848415e+001
2.126168e+003,9.867222e+001
2.129061e+003,9.872168e+001
2.131954e+003,9.871091e+001
2.134847e+003,9.872806e+001
2.137740e+003,9.854465e+001
2.140632e+003,9.856487e+001
2.143525e+003,9.873628e+001
2.146418e+003,9.893797e+001
2.149311e+003,9.857673e+001
2.152203e+003,9.872945e+001
2.155096e+003,9.905879e+001
2.157989e+003,9.906622e+001
2.160882e+003,9.797422e+001
2.163774e+003,9.816579e+001
2.166667e+003,9.826963e+001
2.169560e+003,9.831976e+001
2.172452e+003,9.821434e+001
2.175345e+003,9.856237e+001
2.178238e+003,9.855612e+001
2.181131e+003,9.840501e+001
2.184023e+003,9.845809e+001
2.186916e+003,9.835364e+001
2.189809e+003,9.833208e+001
2.192702e+003,9.842705e+001
2.195594e+003,9.847580e+001
2.198487e+003,9.848460e+001
2.201380e+003,9.842561e+001
2.204273e+003,9.853084e+001
2.207166e+003,9.825646e+001
2.210058e+003,9.835445e+001
2.212951e+003,9.839779e+001
2.215844e+003,9.833261e+001
2.218736e+003,9.860673e+001
2.221629e+003,9.852700e+001
2.224522e+003,9.840215e+001
2.227415e+003,9.853242e+001
2.230307e+003,9.837405e+001
2.233200e+003,9.858543e+001
2.236093e+003,9.824316e+001
2.238986e+003,9.834252e+001
2.241878e+003,9.834039e+001
2.244771e+003,9.837192e+001
2.247664e+003,9.859990e+001
2.250557e+003,9.837270e+001
2.253449e+003,9.847291e+001
2.256342e+003,9.826611e+001
2.259235e+003,9.839457e+001
2.262128e+003,9.824806e+001
2.265020e+003,9.825680e+001
2.267913e+003,9.826022e+001
2.270806e+003,9.821690e+001
2.273699e+003,9.816763e+001
2.276591e+003,9.812605e+001
2.279484e+003,9.814800e+001
2.282377e+003,9.804543e+001
2.285270e+003,9.804729e+001
2.288162e+003,9.786877e+001
2.291055e+003,9.766806e+001
2.293948e+003,9.765139e+001
2.296841e+003,9.739695e+001
2.299733e+003,9.737717e+001
2.302626e+003,9.701536e+001
2.305519e+003,9.684863e+001
2.308412e+003,9.616348e+001
2.311304e+003,9.584566e+001
2.314197e+003,9.564851e+001
2.317090e+003,9.500706e+001
2.319983e+003,9.438407e+001
2.322875e+003,9.351438e+001
2.325768e+003,9.364797e+001
2.328661e+003,9.310489e+001
2.331553e+003,9.278583e+001
2.334446e+003,9.283323e+001
2.337339e+003,9.244038e+001
2.340232e+003,9.210332e+001
2.343125e+003,9.222084e+001
2.346017e+003,9.297462e+001
2.348910e+003,9.471107e+001
2.351803e+003,9.275024e+001
2.354696e+003,9.135282e+001
2.357588e+003,9.039089e+001
2.360481e+003,9.030703e+001
2.363374e+003,9.095643e+001
2.366267e+003,9.163053e+001
2.369159e+003,9.256494e+001
2.372052e+003,9.394380e+001
2.374945e+003,9.516183e+001
2.377837e+003,9.627122e+001
2.380730e+003,9.715609e+001
2.383623e+003,9.800932e+001
2.386516e+003,9.838366e+001
2.389408e+003,9.854028e+001
2.392301e+003,9.844610e+001
2.395194e+003,9.853609e+001
2.398087e+003,9.847028e+001
2.400979e+003,9.844701e+001
2.403872e+003,9.843784e+001
2.406765e+003,9.840370e+001
2.409658e+003,9.828401e+001
2.412551e+003,9.830501e+001
2.415443e+003,9.827380e+001
2.418336e+003,9.829253e+001
2.421229e+003,9.832833e+001
2.424121e+003,9.831247e+001
2.427014e+003,9.835471e+001
2.429907e+003,9.836977e+001
2.432800e+003,9.833273e+001
2.435692e+003,9.843258e+001
2.438585e+003,9.835132e+001
2.441478e+003,9.832828e+001
2.444371e+003,9.843906e+001
2.447263e+003,9.826711e+001
2.450156e+003,9.842152e+001
2.453049e+003,9.838486e+001
2.455942e+003,9.830504e+001
2.458834e+003,9.839248e+001
2.461727e+003,9.840673e+001
2.464620e+003,9.826754e+001
2.467513e+003,9.835106e+001
2.470405e+003,9.833797e+001
2.473298e+003,9.831884e+001
2.476191e+003,9.832771e+001
2.479084e+003,9.836954e+001
2.481976e+003,9.828654e+001
2.484869e+003,9.828637e+001
2.487762e+003,9.836365e+001
2.490655e+003,9.831224e+001
2.493547e+003,9.833610e+001
2.496440e+003,9.829678e+001
2.499333e+003,9.834586e+001
2.502226e+003,9.832600e+001
2.505118e+003,9.833332e+001
2.508011e+003,9.832806e+001
2.510904e+003,9.832759e+001
2.513797e+003,9.825707e+001
2.516689e+003,9.830488e+001
2.519582e+003,9.827031e+001
2.522475e+003,9.819858e+001
2.525368e+003,9.822899e+001
2.528260e+003,9.818293e+001
2.531153e+003,9.808670e+001
2.534046e+003,9.818829e+001
2.536938e+003,9.806194e+001
2.539831e+003,9.804297e+001
2.542724e+003,9.812045e+001
2.545617e+003,9.813609e+001
2.548510e+003,9.819109e+001
2.551402e+003,9.820953e+001
2.554295e+003,9.821018e+001
2.557188e+003,9.816936e+001
2.560081e+003,9.808480e+001
2.562973e+003,9.815250e+001
2.565866e+003,9.806223e+001
2.568759e+003,9.811263e+001
2.571652e+003,9.801003e+001
2.574544e+003,9.803509e+001
2.577437e+003,9.804330e+001
2.580330e+003,9.793536e+001
2.583222e+003,9.800240e+001
2.586115e+003,9.803209e+001
2.589008e+003,9.800692e+001
2.591901e+003,9.794072e+001
2.594793e+003,9.799975e+001
2.597686e+003,9.791013e+001
2.600579e+003,9.798821e+001
2.603472e+003,9.799618e+001
2.606365e+003,9.796699e+001
2.609257e+003,9.798529e+001
2.612150e+003,9.795317e+001
2.615043e+003,9.789740e+001
2.617936e+003,9.788378e+001
2.620828e+003,9.789065e+001
2.623721e+003,9.792586e+001
2.626614e+003,9.781586e+001
2.629506e+003,9.784727e+001
2.632399e+003,9.783427e+001
2.635292e+003,9.775569e+001
2.638185e+003,9.774168e+001
2.641077e+003,9.768760e+001
2.643970e+003,9.769559e+001
2.646863e+003,9.767632e+001
2.649756e+003,9.767933e+001
2.652648e+003,9.771375e+001
2.655541e+003,9.771304e+001
2.658434e+003,9.768918e+001
2.661327e+003,9.766929e+001
2.664219e+003,9.769730e+001
2.667112e+003,9.774736e+001
2.670005e+003,9.778204e+001
2.672898e+003,9.776449e+001
2.675790e+003,9.767414e+001
2.678683e+003,9.770235e+001
2.681576e+003,9.772185e+001
2.684469e+003,9.769558e+001
2.687361e+003,9.769447e+001
2.690254e+003,9.764583e+001
2.693147e+003,9.765296e+001
2.696040e+003,9.761781e+001
2.698932e+003,9.763784e+001
2.701825e+003,9.761975e+001
2.704718e+003,9.764558e+001
2.707611e+003,9.752984e+001
2.710503e+003,9.760280e+001
2.713396e+003,9.748904e+001
2.716289e+003,9.750217e+001
2.719182e+003,9.754353e+001
2.722074e+003,9.753709e+001
2.724967e+003,9.751339e+001
2.727860e+003,9.754147e+001
2.730753e+003,9.745740e+001
2.733645e+003,9.747225e+001
2.736538e+003,9.745551e+001
2.739431e+003,9.742303e+001
2.742323e+003,9.748289e+001
2.745216e+003,9.739558e+001
2.748109e+003,9.727359e+001
2.751002e+003,9.732068e+001
2.753895e+003,9.728710e+001
2.756787e+003,9.728079e+001
2.759680e+003,9.732155e+001
2.762573e+003,9.726349e+001
2.765466e+003,9.723158e+001
2.768358e+003,9.715580e+001
2.771251e+003,9.717011e+001
2.774144e+003,9.709542e+001
2.777037e+003,9.709492e+001
2.779929e+003,9.703305e+001
2.782822e+003,9.701747e+001
2.785715e+003,9.702036e+001
2.788607e+003,9.698860e+001
2.791500e+003,9.694384e+001
2.794393e+003,9.684683e+001
2.797286e+003,9.681036e+001
2.800178e+003,9.668352e+001
2.803071e+003,9.663270e+001
2.805964e+003,9.659112e+001
2.808857e+003,9.636499e+001
2.811750e+003,9.628169e+001
2.814642e+003,9.608718e+001
2.817535e+003,9.584473e+001
2.820428e+003,9.567746e+001
2.823321e+003,9.545106e+001
2.826213e+003,9.522289e+001
2.829106e+003,9.501195e+001
2.831999e+003,9.477849e+001
2.834891e+003,9.445862e+001
2.837784e+003,9.388563e+001
2.840677e+003,9.321703e+001
2.843570e+003,9.226347e+001
2.846462e+003,9.097820e+001
2.849355e+003,8.919961e+001
2.852248e+003,8.738111e+001
2.855141e+003,8.532191e+001
2.858033e+003,8.338611e+001
2.860926e+003,8.155804e+001
2.863819e+003,8.030719e+001
2.866712e+003,8.053957e+001
2.869604e+003,8.187608e+001
2.872497e+003,8.393397e+001
2.875390e+003,8.601989e+001
2.878283e+003,8.740282e+001
2.881175e+003,8.806748e+001
2.884068e+003,8.814083e+001
2.886961e+003,8.748544e+001
2.889854e+003,8.610950e+001
2.892746e+003,8.460092e+001
2.895639e+003,8.414331e+001
2.898532e+003,8.464886e+001
2.901425e+003,8.469924e+001
2.904317e+003,8.405795e+001
2.907210e+003,8.311769e+001
2.910103e+003,8.226504e+001
2.912996e+003,8.146373e+001
2.915888e+003,8.057408e+001
2.918781e+003,7.926064e+001
2.921674e+003,7.794175e+001
2.924567e+003,7.684091e+001
2.927459e+003,7.608647e+001
2.930352e+003,7.523708e+001
2.933245e+003,7.408994e+001
2.936137e+003,7.320147e+001
2.939030e+003,7.274596e+001
2.941923e+003,7.247164e+001
2.944816e+003,7.245346e+001
2.947708e+003,7.322192e+001
2.950601e+003,7.473996e+001
2.953494e+003,7.604851e+001
2.956387e+003,7.737947e+001
2.959280e+003,7.948164e+001
2.962172e+003,8.192619e+001
2.965065e+003,8.403306e+001
2.967958e+003,8.602337e+001
2.970851e+003,8.786292e+001
2.973743e+003,8.969136e+001
2.976636e+003,9.115218e+001
2.979529e+003,9.227438e+001
2.982422e+003,9.322535e+001
2.985314e+003,9.389209e+001
2.988207e+003,9.453694e+001
2.991100e+003,9.502974e+001
2.993992e+003,9.550555e+001
2.996885e+003,9.570456e+001
2.999778e+003,9.595126e+001
3.002671e+003,9.617004e+001
3.005563e+003,9.640289e+001
3.008456e+003,9.654959e+001
3.011349e+003,9.664281e+001
3.014242e+003,9.674056e+001
3.017135e+003,9.669278e+001
3.020027e+003,9.673880e+001
3.022920e+003,9.685680e+001
3.025813e+003,9.682681e+001
3.028706e+003,9.688826e+001
3.031598e+003,9.681673e+001
3.034491e+003,9.693948e+001
3.037384e+003,9.695575e+001
3.040276e+003,9.690672e+001
3.043169e+003,9.679869e+001
3.046062e+003,9.686948e+001
3.048955e+003,9.700738e+001
3.051847e+003,9.691956e+001
3.054740e+003,9.689324e+001
3.057633e+003,9.686707e+001
3.060526e+003,9.688147e+001
3.063418e+003,9.689071e+001
3.066311e+003,9.693060e+001
3.069204e+003,9.690939e+001
3.072097e+003,9.694987e+001
3.074990e+003,9.685706e+001
3.077882e+003,9.684427e+001
3.080775e+003,9.692877e+001
3.083668e+003,9.689989e+001
3.086560e+003,9.686449e+001
3.089453e+003,9.689751e+001
3.092346e+003,9.689245e+001
3.095239e+003,9.687274e+001
3.098131e+003,9.693718e+001
3.101024e+003,9.688268e+001
3.103917e+003,9.696359e+001
3.106810e+003,9.682368e+001
3.109702e+003,9.680873e+001
3.112595e+003,9.687204e+001
3.115488e+003,9.687365e+001
3.118381e+003,9.685088e+001
3.121273e+003,9.682766e+001
3.124166e+003,9.681120e+001
3.127059e+003,9.681962e+001
3.129952e+003,9.692188e+001
3.132844e+003,9.683422e+001
3.135737e+003,9.683786e+001
3.138630e+003,9.679279e+001
3.141522e+003,9.687367e+001
3.144415e+003,9.678501e+001
3.147308e+003,9.683481e+001
3.150201e+003,9.680829e+001
3.153094e+003,9.671491e+001
3.155986e+003,9.675711e+001
3.158879e+003,9.678325e+001
3.161772e+003,9.679384e+001
3.164665e+003,9.680640e+001
3.167557e+003,9.683488e+001
3.170450e+003,9.672115e+001
3.173343e+003,9.675493e+001
3.176236e+003,9.667744e+001
3.179128e+003,9.673688e+001
3.182021e+003,9.673058e+001
3.184914e+003,9.674047e+001
3.187806e+003,9.676945e+001
3.190699e+003,9.667033e+001
3.193592e+003,9.672047e+001
3.196485e+003,9.671893e+001
3.199377e+003,9.673643e+001
3.202270e+003,9.667111e+001
3.205163e+003,9.668207e+001
3.208056e+003,9.666292e+001
3.210948e+003,9.668439e+001
3.213841e+003,9.673741e+001
3.216734e+003,9.670615e+001
3.219627e+003,9.669925e+001
3.222520e+003,9.664806e+001
3.225412e+003,9.668695e+001
3.228305e+003,9.672874e+001
3.231198e+003,9.667811e+001
3.234091e+003,9.675204e+001
3.236983e+003,9.669988e+001
3.239876e+003,9.662329e+001
3.242769e+003,9.676756e+001
3.245661e+003,9.668269e+001
3.248554e+003,9.673763e+001
3.251447e+003,9.655878e+001
3.254340e+003,9.648545e+001
3.257232e+003,9.658022e+001
3.260125e+003,9.662804e+001
3.263018e+003,9.664394e+001
3.265911e+003,9.654952e+001
3.268803e+003,9.664555e+001
3.271696e+003,9.657025e+001
3.274589e+003,9.661806e+001
3.277482e+003,9.653340e+001
3.280375e+003,9.659513e+001
3.283267e+003,9.659006e+001
3.286160e+003,9.649432e+001
3.289053e+003,9.650301e+001
3.291945e+003,9.658970e+001
3.294838e+003,9.663469e+001
3.297731e+003,9.667640e+001
3.300624e+003,9.667107e+001
3.303516e+003,9.664774e+001
3.306409e+003,9.671313e+001
3.309302e+003,9.653676e+001
3.312195e+003,9.668752e+001
3.315087e+003,9.657727e+001
3.317980e+003,9.660772e+001
3.320873e+003,9.661309e+001
3.323766e+003,9.667216e+001
3.326658e+003,9.676391e+001
3.329551e+003,9.664095e+001
3.332444e+003,9.661945e+001
3.335337e+003,9.661221e+001
3.338229e+003,9.658357e+001
3.341122e+003,9.658116e+001
3.344015e+003,9.659366e+001
3.346907e+003,9.675331e+001
3.349800e+003,9.662666e+001
3.352693e+003,9.670112e+001
3.355586e+003,9.663464e+001
3.358479e+003,9.661505e+001
3.361371e+003,9.662016e+001
3.364264e+003,9.669994e+001
3.367157e+003,9.673920e+001
3.370050e+003,9.664823e+001
3.372942e+003,9.672256e+001
3.375835e+003,9.675661e+001
3.378728e+003,9.676101e+001
3.381621e+003,9.677240e+001
3.384513e+003,9.664219e+001
3.387406e+003,9.672742e+001
3.390299e+003,9.663627e+001
3.393191e+003,9.681139e+001
3.396084e+003,9.671468e+001
3.398977e+003,9.680710e+001
3.401870e+003,9.663179e+001
3.404762e+003,9.672449e+001
3.407655e+003,9.665123e+001
3.410548e+003,9.675466e+001
3.413441e+003,9.667075e+001
3.416333e+003,9.658137e+001
3.419226e+003,9.671104e+001
3.422119e+003,9.668556e+001
3.425012e+003,9.656345e+001
3.427905e+003,9.653288e+001
3.430797e+003,9.646441e+001
3.433690e+003,9.629283e+001
3.436583e+003,9.612158e+001
3.439475e+003,9.626227e+001
3.442368e+003,9.632121e+001
3.445261e+003,9.637429e+001
3.448154e+003,9.650851e+001
3.451046e+003,9.659765e+001
3.453939e+003,9.666504e+001
3.456832e+003,9.658620e+001
3.459725e+003,9.664752e+001
3.462617e+003,9.679812e+001
3.465510e+003,9.691503e+001
3.468403e+003,9.702653e+001
3.471296e+003,9.701684e+001
3.474188e+003,9.712726e+001
3.477081e+003,9.717547e+001
3.479974e+003,9.709643e+001
3.482867e+003,9.731231e+001
3.485760e+003,9.719133e+001
3.488652e+003,9.734462e+001
3.491545e+003,9.738406e+001
3.494438e+003,9.711520e+001
3.497330e+003,9.725792e+001
3.500223e+003,9.732245e+001
3.503116e+003,9.735893e+001
3.506009e+003,9.737872e+001
3.508901e+003,9.733507e+001
3.511794e+003,9.737624e+001
3.514687e+003,9.747400e+001
3.517580e+003,9.746542e+001
3.520472e+003,9.744845e+001
3.523365e+003,9.747948e+001
3.526258e+003,9.744163e+001
3.529151e+003,9.743363e+001
3.532043e+003,9.760168e+001
3.534936e+003,9.753277e+001
3.537829e+003,9.755242e+001
3.540722e+003,9.759356e+001
3.543614e+003,9.747078e+001
3.546507e+003,9.761433e+001
3.549400e+003,9.767074e+001
3.552292e+003,9.775954e+001
3.555185e+003,9.777193e+001
3.558078e+003,9.781332e+001
3.560971e+003,9.783584e+001
3.563864e+003,9.779768e+001
3.566756e+003,9.800610e+001
3.569649e+003,9.790295e+001
3.572542e+003,9.793824e+001
3.575435e+003,9.803700e+001
3.578327e+003,9.798021e+001
3.581220e+003,9.801332e+001
3.584113e+003,9.803185e+001
3.587006e+003,9.814569e+001
3.589898e+003,9.807420e+001
3.592791e+003,9.791574e+001
3.595684e+003,9.798644e+001
3.598576e+003,9.800583e+001
3.601469e+003,9.776243e+001
3.604362e+003,9.793810e+001
3.607255e+003,9.791678e+001
3.610147e+003,9.823452e+001
3.613040e+003,9.834239e+001
3.615933e+003,9.819322e+001
3.618826e+003,9.830148e+001
3.621719e+003,9.806876e+001
3.624611e+003,9.810054e+001
3.627504e+003,9.820168e+001
3.630397e+003,9.823567e+001
3.633290e+003,9.813332e+001
3.636182e+003,9.820659e+001
3.639075e+003,9.841333e+001
3.641968e+003,9.854095e+001
3.644860e+003,9.863468e+001
3.647753e+003,9.872688e+001
3.650646e+003,9.899668e+001
3.653539e+003,9.877343e+001
3.656431e+003,9.906133e+001
3.659324e+003,9.876877e+001
3.662217e+003,9.887967e+001
3.665110e+003,9.904474e+001
3.668002e+003,9.878729e+001
3.670895e+003,9.923347e+001
3.673788e+003,9.886259e+001
3.676681e+003,9.917059e+001
3.679573e+003,9.902637e+001
3.682466e+003,9.888385e+001
3.685359e+003,9.888100e+001
3.688252e+003,9.896986e+001
3.691145e+003,9.900595e+001
3.694037e+003,9.885236e+001
3.696930e+003,9.880380e+001
3.699823e+003,9.859075e+001
3.702715e+003,9.874396e+001
3.705608e+003,9.876547e+001
3.708501e+003,9.872598e+001
3.711394e+003,9.886848e+001
3.714286e+003,9.900852e+001
3.717179e+003,9.889812e+001
3.720072e+003,9.884944e+001
3.722965e+003,9.857689e+001
3.725857e+003,9.858833e+001
3.728750e+003,9.866486e+001
3.731643e+003,9.894895e+001
3.734536e+003,9.864854e+001
3.737428e+003,9.905874e+001
3.740321e+003,9.890948e+001
3.743214e+003,9.878008e+001
3.746107e+003,9.921817e+001
3.748999e+003,9.919389e+001
3.751892e+003,9.958247e+001
3.754785e+003,9.902486e+001
3.757677e+003,9.911026e+001
3.760570e+003,9.915804e+001
3.763463e+003,9.906002e+001
3.766356e+003,9.919658e+001
3.769249e+003,9.924695e+001
3.772141e+003,9.905058e+001
3.775034e+003,9.911416e+001
3.777927e+003,9.915353e+001
3.780820e+003,9.906046e+001
3.783712e+003,9.903759e+001
3.786605e+003,9.910422e+001
3.789498e+003,9.913087e+001
3.792391e+003,9.910087e+001
3.795283e+003,9.917710e+001
3.798176e+003,9.916920e+001
3.801069e+003,9.907452e+001
3.803961e+003,9.920013e+001
3.806854e+003,9.961608e+001
3.809747e+003,9.909006e+001
3.812640e+003,9.911070e+001
3.815532e+003,9.945979e+001
3.818425e+003,9.921336e+001
3.821318e+003,9.929562e+001
3.824211e+003,9.895491e+001
3.827104e+003,9.930885e+001
3.829996e+003,9.903889e+001
3.832889e+003,9.914101e+001
3.835782e+003,9.905446e+001
3.838675e+003,9.913658e+001
3.841567e+003,9.907569e+001
3.844460e+003,9.912495e+001
3.847353e+003,9.904031e+001
3.850245e+003,9.909418e+001
3.853138e+003,9.942875e+001
3.856031e+003,9.910948e+001
3.858924e+003,9.904411e+001
3.861816e+003,9.918612e+001
3.864709e+003,9.930631e+001
3.867602e+003,9.906819e+001
3.870495e+003,9.938549e+001
3.873387e+003,9.899082e+001
3.876280e+003,9.904818e+001
3.879173e+003,9.901378e+001
3.882066e+003,9.906601e+001
3.884958e+003,9.905756e+001
3.887851e+003,9.901365e+001
3.890744e+003,9.907683e+001
3.893637e+003,9.903834e+001
3.896529e+003,9.897958e+001
3.899422e+003,9.914950e+001
3.902315e+003,9.881160e+001
3.905208e+003,9.937663e+001
3.908100e+003,9.896114e+001
3.910993e+003,9.901108e+001
3.913886e+003,9.912457e+001
3.916779e+003,9.911278e+001
3.919671e+003,9.921976e+001
3.922564e+003,9.907351e+001
3.925457e+003,9.916940e+001
3.928350e+003,9.915414e+001
3.931242e+003,9.900681e+001
3.934135e+003,9.909575e+001
3.937028e+003,9.897076e+001
3.939921e+003,9.907430e+001
3.942813e+003,9.916206e+001
3.945706e+003,9.899506e+001
3.948599e+003,9.903138e+001
3.951492e+003,9.914184e+001
3.954384e+003,9.912980e+001
3.957277e+003,9.907289e+001
3.960170e+003,9.903053e+001
3.963063e+003,9.913732e+001
3.965955e+003,9.901411e+001
3.968848e+003,9.910568e+001
3.971741e+003,9.902262e+001
3.974634e+003,9.896054e+001
3.977526e+003,9.907644e+001
3.980419e+003,9.905109e+001
3.983312e+003,9.903165e+001
3.986205e+003,9.909800e+001
3.989097e+003,9.905463e+001
3.991990e+003,9.899156e+001
3.994883e+003,9.907257e+001
3.997776e+003,9.906086e+001
4.000668e+003,0.000000e+000