File: FTIR Data (PCL)/All Data/PCL_NaOH_PDA_3_2.CSV
3.991989e+002,0.000000e+000
4.020916e+002,0.000000e+000
4.049844e+002,0.000000e+000
4.078771e+002,0.000000e+000
4.107699e+002,0.000000e+000
4.136626e+002,0.000000e+000
4.165554e+002,0.000000e+000
4.194481e+002,0.000000e+000
4.223409e+002,0.000000e+000
4.252336e+002,0.000000e+000
4.281263e+002,0.000000e+000
4.310191e+002,0.000000e+000
4.339118e+002,0.000000e+000
4.368046e+002,0.000000e+000
4.396973e+002,0.000000e+000
4.425901e+002,0.000000e+000
4.454828e+002,0.000000e+000
4.483756e+002,0.000000e+000
4.512683e+002,0.000000e+000
4.541611e+002,0.000000e+000
4.570538e+002,0.000000e+000
4.599466e+002,0.000000e+000
4.628393e+002,0.000000e+000
4.657321e+002,0.000000e+000
4.686248e+002,0.000000e+000
4.715175e+002,0.000000e+000
4.744103e+002,0.000000e+000
4.773030e+002,0.000000e+000
4.801958e+002,0.000000e+000
4.830885e+002,0.000000e+000
4.859813e+002,0.000000e+000
4.888740e+002,0.000000e+000
4.917668e+002,0.000000e+000
4.946595e+002,0.000000e+000
4.975523e+002,0.000000e+000
5.004450e+002,0.000000e+000
5.033378e+002,0.000000e+000
5.062305e+002,0.000000e+000
5.091233e+002,0.000000e+000
5.120160e+002,0.000000e+000
5.149088e+002,0.000000e+000
5.178015e+002,0.000000e+000
5.206942e+002,0.000000e+000
5.235870e+002,0.000000e+000
5.264797e+002,0.000000e+000
5.293725e+002,0.000000e+000
5.322652e+002,0.000000e+000
5.351580e+002,0.000000e+000
5.380507e+002,0.000000e+000
5.409435e+002,0.000000e+000
5.438362e+002,0.000000e+000
5.467289e+002,0.000000e+000
5.496217e+002,8.610459e+001
5.525145e+002,8.238857e+001
5.554072e+002,8.722184e+001
5.582999e+002,8.337228e+001
5.611927e+002,8.700642e+001
5.640854e+002,8.453608e+001
5.669782e+002,8.254105e+001
5.698709e+002,7.997154e+001
5.727637e+002,8.004367e+001
5.756564e+002,7.681008e+001
5.785492e+002,7.955993e+001
5.814419e+002,7.813806e+001
5.843347e+002,7.600337e+001
5.872274e+002,7.765292e+001
5.901202e+002,8.019195e+001
5.930129e+002,8.010493e+001
5.959056e+002,8.297377e+001
5.987984e+002,8.396265e+001
6.016912e+002,8.387550e+001
6.045839e+002,8.342020e+001
6.074766e+002,8.339513e+001
6.103694e+002,8.508018e+001
6.132621e+002,8.377335e+001
6.161548e+002,8.387259e+001
6.190476e+002,8.469752e+001
6.219404e+002,8.456399e+001
6.248331e+002,8.463373e+001
6.277258e+002,8.486634e+001
6.306186e+002,8.436485e+001
6.335114e+002,8.456297e+001
6.364041e+002,8.480029e+001
6.392968e+002,8.441968e+001
6.421896e+002,8.423112e+001
6.450823e+002,8.420365e+001
6.479751e+002,8.403447e+001
6.508679e+002,8.429476e+001
6.537606e+002,8.403728e+001
6.566533e+002,8.442352e+001
6.595461e+002,8.432719e+001
6.624388e+002,8.421937e+001
6.653315e+002,8.450063e+001
6.682243e+002,7.899889e+001
6.711171e+002,8.403744e+001
6.740098e+002,8.372570e+001
6.769025e+002,8.325275e+001
6.797953e+002,8.298504e+001
6.826880e+002,8.280653e+001
6.855808e+002,8.216770e+001
6.884735e+002,8.165144e+001
6.913663e+002,8.107478e+001
6.942590e+002,8.016895e+001
6.971518e+002,7.910452e+001
7.000445e+002,7.777114e+001
7.029373e+002,7.600679e+001
7.058300e+002,7.398950e+001
7.087228e+002,7.268833e+001
7.116155e+002,7.318164e+001
7.145082e+002,7.480271e+001
7.174010e+002,7.552307e+001
7.202938e+002,7.425269e+001
7.231865e+002,6.988782e+001
7.260792e+002,6.276424e+001
7.289720e+002,6.048222e+001
7.318647e+002,5.823797e+001
7.347575e+002,6.477736e+001
7.376502e+002,7.207134e+001
7.405430e+002,7.718903e+001
7.434357e+002,8.078236e+001
7.463285e+002,8.297659e+001
7.492212e+002,8.435898e+001
7.521140e+002,8.534189e+001
7.550067e+002,8.599999e+001
7.578995e+002,8.641485e+001
7.607922e+002,8.648022e+001
7.636849e+002,8.610324e+001
7.665777e+002,8.536354e+001
7.694705e+002,8.456850e+001
7.723632e+002,8.398403e+001
7.752559e+002,8.431924e+001
7.781487e+002,8.512718e+001
7.810414e+002,8.584145e+001
7.839341e+002,8.622863e+001
7.868269e+002,8.639931e+001
7.897197e+002,8.647037e+001
7.926124e+002,8.646896e+001
7.955051e+002,8.658144e+001
7.983979e+002,8.643478e+001
8.012906e+002,8.628869e+001
8.041834e+002,8.627868e+001
8.070761e+002,8.615926e+001
8.099689e+002,8.627379e+001
8.128616e+002,8.628183e+001
8.157544e+002,8.626716e+001
8.186472e+002,8.622807e+001
8.215399e+002,8.599432e+001
8.244326e+002,8.584528e+001
8.273254e+002,8.552239e+001
8.302181e+002,8.493329e+001
8.331108e+002,8.367905e+001
8.360036e+002,8.164960e+001
8.388964e+002,7.863366e+001
8.417891e+002,7.931934e+001
8.446818e+002,8.316068e+001
8.475746e+002,8.426289e+001
8.504673e+002,8.455859e+001
8.533601e+002,8.448235e+001
8.562528e+002,8.438240e+001
8.591456e+002,8.435447e+001
8.620383e+002,8.426057e+001
8.649311e+002,8.413681e+001
8.678238e+002,8.389224e+001
8.707166e+002,8.391267e+001
8.736093e+002,8.378162e+001
8.765021e+002,8.379475e+001
8.793948e+002,8.363239e+001
8.822875e+002,8.360371e+001
8.851803e+002,8.343681e+001
8.880731e+002,8.329924e+001
8.909658e+002,8.318584e+001
8.938585e+002,8.314951e+001
8.967513e+002,8.297402e+001
8.996440e+002,8.277371e+001
9.025368e+002,8.250137e+001
9.054295e+002,8.203609e+001
9.083223e+002,8.163271e+001
9.112150e+002,8.092896e+001
9.141078e+002,8.029244e+001
9.170005e+002,7.965396e+001
9.198932e+002,7.868455e+001
9.227860e+002,7.735946e+001
9.256788e+002,7.535645e+001
9.285715e+002,7.253004e+001
9.314642e+002,6.923412e+001
9.343570e+002,6.812634e+001
9.372498e+002,7.126511e+001
9.401425e+002,7.392307e+001
9.430352e+002,7.413112e+001
9.459280e+002,7.276624e+001
9.488207e+002,7.027227e+001
9.517134e+002,6.686770e+001
9.546062e+002,6.299693e+001
9.574990e+002,5.874876e+001
9.603917e+002,5.609909e+001
9.632844e+002,5.955674e+001
9.661772e+002,6.676232e+001
9.690699e+002,7.100648e+001
9.719627e+002,7.322356e+001
9.748554e+002,7.485732e+001
9.777482e+002,7.629451e+001
9.806409e+002,7.719876e+001
9.835337e+002,7.744015e+001
9.864265e+002,7.724434e+001
9.893192e+002,7.702510e+001
9.922119e+002,7.683777e+001
9.951047e+002,7.678472e+001
9.979974e+002,7.672798e+001
1.000890e+003,7.643799e+001
1.003783e+003,7.605772e+001
1.006676e+003,7.544075e+001
1.009568e+003,7.484241e+001
1.012461e+003,7.422661e+001
1.015354e+003,7.344517e+001
1.018247e+003,7.242806e+001
1.021139e+003,7.128615e+001
1.024032e+003,6.975783e+001
1.026925e+003,6.790186e+001
1.029818e+003,6.558185e+001
1.032710e+003,6.314461e+001
1.035603e+003,5.965974e+001
1.038496e+003,5.589648e+001
1.041389e+003,5.187333e+001
1.044281e+003,4.881404e+001
1.047174e+003,5.003664e+001
1.050067e+003,5.726690e+001
1.052960e+003,6.441207e+001
1.055852e+003,6.844930e+001
1.058745e+003,6.939426e+001
1.061638e+003,6.743949e+001
1.064531e+003,6.492081e+001
1.067423e+003,6.618702e+001
1.070316e+003,7.015181e+001
1.073209e+003,7.211877e+001
1.076102e+003,7.219872e+001
1.078994e+003,7.088920e+001
1.081887e+003,6.885814e+001
1.084780e+003,6.644640e+001
1.087673e+003,6.417680e+001
1.090565e+003,6.231674e+001
1.093458e+003,6.105465e+001
1.096351e+003,6.042484e+001
1.099244e+003,5.981015e+001
1.102136e+003,5.842876e+001
1.105029e+003,5.631475e+001
1.107922e+003,5.527223e+001
1.110815e+003,5.894579e+001
1.113707e+003,6.487344e+001
1.116600e+003,6.927024e+001
1.119493e+003,7.117823e+001
1.122385e+003,7.065308e+001
1.125278e+003,6.893163e+001
1.128171e+003,6.655065e+001
1.131064e+003,6.373536e+001
1.133957e+003,6.043121e+001
1.136849e+003,5.665262e+001
1.139742e+003,5.233633e+001
1.142635e+003,4.767056e+001
1.145527e+003,4.270555e+001
1.148420e+003,3.781554e+001
1.151313e+003,3.360082e+001
1.154206e+003,3.041822e+001
1.157099e+003,2.842250e+001
1.159991e+003,2.756994e+001
1.162884e+003,2.758779e+001
1.165777e+003,2.825658e+001
1.168669e+003,2.910316e+001
1.171562e+003,3.018559e+001
1.174455e+003,3.129084e+001
1.177348e+003,3.247118e+001
1.180240e+003,3.389342e+001
1.183133e+003,3.509508e+001
1.186026e+003,3.612218e+001
1.188919e+003,3.901702e+001
1.191811e+003,4.427393e+001
1.194704e+003,5.148339e+001
1.197597e+003,5.946810e+001
1.200490e+003,6.585553e+001
1.203382e+003,6.914909e+001
1.206275e+003,7.077514e+001
1.209168e+003,7.157248e+001
1.212061e+003,7.178616e+001
1.214953e+003,7.150811e+001
1.217846e+003,7.075633e+001
1.220739e+003,6.942986e+001
1.223632e+003,6.742063e+001
1.226524e+003,6.398001e+001
1.229417e+003,5.862080e+001
1.232310e+003,5.154646e+001
1.235203e+003,4.471267e+001
1.238095e+003,4.207931e+001
1.240988e+003,4.430135e+001
1.243881e+003,4.886309e+001
1.246774e+003,5.744563e+001
1.249666e+003,6.714104e+001
1.252559e+003,7.269448e+001
1.255452e+003,7.513852e+001
1.258345e+003,7.647572e+001
1.261237e+003,7.738133e+001
1.264130e+003,7.806650e+001
1.267023e+003,7.828261e+001
1.269916e+003,7.805608e+001
1.272808e+003,7.746285e+001
1.275701e+003,7.662782e+001
1.278594e+003,7.565010e+001
1.281487e+003,7.448995e+001
1.284379e+003,7.274574e+001
1.287272e+003,6.942496e+001
1.290165e+003,6.274049e+001
1.293057e+003,5.775629e+001
1.295950e+003,6.209805e+001
1.298843e+003,6.920847e+001
1.301736e+003,7.442533e+001
1.304629e+003,7.716985e+001
1.307521e+003,7.948317e+001
1.310414e+003,8.136440e+001
1.313307e+003,8.250903e+001
1.316200e+003,8.321769e+001
1.319092e+003,8.355074e+001
1.321985e+003,8.352203e+001
1.324878e+003,8.363317e+001
1.327771e+003,8.426388e+001
1.330663e+003,8.502790e+001
1.333556e+003,8.548539e+001
1.336449e+003,8.538755e+001
1.339342e+003,8.476842e+001
1.342234e+003,8.348724e+001
1.345127e+003,8.155596e+001
1.348020e+003,7.897351e+001
1.350912e+003,7.587305e+001
1.353805e+003,7.306690e+001
1.356698e+003,7.065544e+001
1.359591e+003,6.707269e+001
1.362484e+003,6.319960e+001
1.365376e+003,6.165081e+001
1.368269e+003,6.422597e+001
1.371162e+003,6.855693e+001
1.374054e+003,7.089087e+001
1.376947e+003,7.439716e+001
1.379840e+003,7.981499e+001
1.382733e+003,8.307309e+001
1.385625e+003,8.366482e+001
1.388518e+003,8.234274e+001
1.391411e+003,8.009845e+001
1.394304e+003,7.750466e+001
1.397196e+003,7.611362e+001
1.400089e+003,7.890054e+001
1.402982e+003,8.257652e+001
1.405875e+003,8.470937e+001
1.408767e+003,8.398824e+001
1.411660e+003,8.049860e+001
1.414553e+003,7.659517e+001
1.417446e+003,7.531187e+001
1.420338e+003,7.577333e+001
1.423231e+003,8.068730e+001
1.426124e+003,8.495664e+001
1.429017e+003,8.672031e+001
1.431909e+003,8.673988e+001
1.434802e+003,8.583112e+001
1.437695e+003,8.574387e+001
1.440588e+003,8.637846e+001
1.443480e+003,8.684266e+001
1.446373e+003,8.656176e+001
1.449266e+003,8.597879e+001
1.452159e+003,8.498655e+001
1.455051e+003,8.369431e+001
1.457944e+003,8.127090e+001
1.460837e+003,8.036541e+001
1.463730e+003,7.897688e+001
1.466622e+003,7.907594e+001
1.469515e+003,7.588238e+001
1.472408e+003,7.852862e+001
1.475301e+003,8.205636e+001
1.478193e+003,8.299644e+001
1.481086e+003,8.743064e+001
1.483979e+003,9.068057e+001
1.486872e+003,9.222267e+001
1.489764e+003,9.291157e+001
1.492657e+003,9.321024e+001
1.495550e+003,9.342292e+001
1.498443e+003,9.343208e+001
1.501335e+003,9.335848e+001
1.504228e+003,9.330706e+001
1.507121e+003,9.381595e+001
1.510014e+003,9.340145e+001
1.512906e+003,9.341208e+001
1.515799e+003,9.359241e+001
1.518692e+003,9.361563e+001
1.521584e+003,9.398383e+001
1.524477e+003,9.383134e+001
1.527370e+003,9.376540e+001
1.530263e+003,9.379382e+001
1.533156e+003,9.378156e+001
1.536048e+003,9.361257e+001
1.538941e+003,9.375468e+001
1.541834e+003,9.371776e+001
1.544726e+003,9.369613e+001
1.547619e+003,9.369786e+001
1.550512e+003,9.385816e+001
1.553405e+003,9.385121e+001
1.556297e+003,9.389312e+001
1.559190e+003,9.453798e+001
1.562083e+003,9.376852e+001
1.564976e+003,9.367688e+001
1.567869e+003,9.357690e+001
1.570761e+003,9.342593e+001
1.573654e+003,9.315225e+001
1.576547e+003,9.320851e+001
1.579439e+003,9.294405e+001
1.582332e+003,9.299925e+001
1.585225e+003,9.305044e+001
1.588118e+003,9.305923e+001
1.591010e+003,9.294725e+001
1.593903e+003,9.290221e+001
1.596796e+003,9.274504e+001
1.599689e+003,9.262628e+001
1.602581e+003,9.249521e+001
1.605474e+003,9.233139e+001
1.608367e+003,9.220189e+001
1.611260e+003,9.199277e+001
1.614152e+003,9.191302e+001
1.617045e+003,9.206699e+001
1.619938e+003,9.158728e+001
1.622831e+003,9.151790e+001
1.625723e+003,9.125866e+001
1.628616e+003,9.108018e+001
1.631509e+003,9.085996e+001
1.634402e+003,9.079509e+001
1.637294e+003,9.086341e+001
1.640187e+003,9.066455e+001
1.643080e+003,9.065741e+001
1.645973e+003,9.065421e+001
1.648865e+003,9.044246e+001
1.651758e+003,9.029171e+001
1.654651e+003,9.017769e+001
1.657544e+003,8.959122e+001
1.660436e+003,8.912898e+001
1.663329e+003,8.862992e+001
1.666222e+003,8.785468e+001
1.669115e+003,8.720269e+001
1.672007e+003,8.602126e+001
1.674900e+003,8.473062e+001
1.677793e+003,8.288702e+001
1.680686e+003,8.072542e+001
1.683578e+003,7.893292e+001
1.686471e+003,7.672333e+001
1.689364e+003,7.502778e+001
1.692257e+003,7.347565e+001
1.695149e+003,7.173621e+001
1.698042e+003,6.927983e+001
1.700935e+003,6.627188e+001
1.703828e+003,6.305573e+001
1.706720e+003,5.814417e+001
1.709613e+003,5.187796e+001
1.712506e+003,4.342858e+001
1.715399e+003,3.290734e+001
1.718291e+003,2.352870e+001
1.721184e+003,2.086912e+001
1.724077e+003,2.603574e+001
1.726969e+003,3.504752e+001
1.729862e+003,4.217501e+001
1.732755e+003,4.673787e+001
1.735648e+003,5.423712e+001
1.738541e+003,6.032965e+001
1.741433e+003,6.891953e+001
1.744326e+003,7.716563e+001
1.747219e+003,8.362255e+001
1.750111e+003,8.801166e+001
1.753004e+003,9.080560e+001
1.755897e+003,9.214378e+001
1.758790e+003,9.312805e+001
1.761682e+003,9.386565e+001
1.764575e+003,9.407745e+001
1.767468e+003,9.444632e+001
1.770361e+003,9.476671e+001
1.773253e+003,9.530614e+001
1.776146e+003,9.551753e+001
1.779039e+003,9.573978e+001
1.781932e+003,9.595954e+001
1.784824e+003,9.629818e+001
1.787717e+003,9.649103e+001
1.790610e+003,9.663670e+001
1.793503e+003,9.694557e+001
1.796395e+003,9.704262e+001
1.799288e+003,9.718425e+001
1.802181e+003,9.735266e+001
1.805074e+003,9.747453e+001
1.807966e+003,9.753752e+001
1.810859e+003,9.766051e+001
1.813752e+003,9.770692e+001
1.816645e+003,9.788158e+001
1.819537e+003,9.785721e+001
1.822430e+003,9.788480e+001
1.825323e+003,9.798203e+001
1.828216e+003,9.807588e+001
1.831108e+003,9.802711e+001
1.834001e+003,9.800420e+001
1.836894e+003,9.802069e+001
1.839787e+003,9.794420e+001
1.842679e+003,9.812907e+001
1.845572e+003,9.810564e+001
1.848465e+003,9.805697e+001
1.851358e+003,9.805610e+001
1.854250e+003,9.822628e+001
1.857143e+003,9.830899e+001
1.860036e+003,9.831207e+001
1.862929e+003,9.841730e+001
1.865821e+003,9.834785e+001
1.868714e+003,9.819809e+001
1.871607e+003,9.829247e+001
1.874500e+003,9.829564e+001
1.877392e+003,9.830731e+001
1.880285e+003,9.823772e+001
1.883178e+003,9.816770e+001
1.886071e+003,9.822174e+001
1.888963e+003,9.837614e+001
1.891856e+003,9.826395e+001
1.894749e+003,9.822744e+001
1.897642e+003,9.820553e+001
1.900534e+003,9.822594e+001
1.903427e+003,9.823842e+001
1.906320e+003,9.827808e+001
1.909213e+003,9.817194e+001
1.912105e+003,9.817360e+001
1.914998e+003,9.821965e+001
1.917891e+003,9.812663e+001
1.920784e+003,9.818149e+001
1.923676e+003,9.831271e+001
1.926569e+003,9.819868e+001
1.929462e+003,9.834749e+001
1.932354e+003,9.835225e+001
1.935247e+003,9.824102e+001
1.938140e+003,9.850748e+001
1.941033e+003,9.832498e+001
1.943926e+003,9.836411e+001
1.946818e+003,9.844741e+001
1.949711e+003,9.833069e+001
1.952604e+003,9.838357e+001
1.955496e+003,9.851411e+001
1.958389e+003,9.842223e+001
1.961282e+003,9.826231e+001
1.964175e+003,9.815027e+001
1.967068e+003,9.860492e+001
1.969960e+003,9.848518e+001
1.972853e+003,9.837810e+001
1.975746e+003,9.837480e+001
1.978638e+003,9.766013e+001
1.981531e+003,9.815417e+001
1.984424e+003,9.828477e+001
1.987317e+003,9.817409e+001
1.990209e+003,9.830180e+001
1.993102e+003,9.824541e+001
1.995995e+003,9.842094e+001
1.998888e+003,9.817061e+001
2.001780e+003,9.811926e+001
2.004673e+003,9.843779e+001
2.007566e+003,9.818005e+001
2.010459e+003,9.828352e+001
2.013351e+003,9.824103e+001
2.016244e+003,9.837312e+001
2.019137e+003,9.835299e+001
2.022030e+003,9.828186e+001
2.024922e+003,9.834930e+001
2.027815e+003,9.807909e+001
2.030708e+003,9.811027e+001
2.033601e+003,9.820016e+001
2.036493e+003,9.799058e+001
2.039386e+003,9.804440e+001
2.042279e+003,9.799880e+001
2.045172e+003,9.803501e+001
2.048064e+003,9.801946e+001
2.050957e+003,9.792019e+001
2.053850e+003,9.820428e+001
2.056743e+003,9.817141e+001
2.059635e+003,9.815300e+001
2.062528e+003,9.809818e+001
2.065421e+003,9.801909e+001
2.068314e+003,9.813017e+001
2.071206e+003,9.785402e+001
2.074099e+003,9.802264e+001
2.076992e+003,9.795519e+001
2.079885e+003,9.796483e+001
2.082777e+003,9.799426e+001
2.085670e+003,9.790571e+001
2.088563e+003,9.806163e+001
2.091456e+003,9.796316e+001
2.094348e+003,9.809249e+001
2.097241e+003,9.777912e+001
2.100134e+003,9.783136e+001
2.103027e+003,9.797131e+001
2.105919e+003,9.795472e+001
2.108812e+003,9.805323e+001
2.111705e+003,9.785452e+001
2.114598e+003,9.796378e+001
2.117490e+003,9.809055e+001
2.120383e+003,9.835220e+001
2.123276e+003,9.815421e+001
2.126168e+003,9.826469e+001
2.129061e+003,9.841316e+001
2.131954e+003,9.860699e+001
2.134847e+003,9.840450e+001
2.137740e+003,9.831618e+001
2.140632e+003,9.848376e+001
2.143525e+003,9.844054e+001
2.146418e+003,9.851817e+001
2.149311e+003,9.856065e+001
2.152203e+003,9.862708e+001
2.155096e+003,9.850965e+001
2.157989e+003,9.875587e+001
2.160882e+003,9.766638e+001
2.163774e+003,9.781181e+001
2.166667e+003,9.805181e+001
2.169560e+003,9.802435e+001
2.172452e+003,9.820313e+001
2.175345e+003,9.818685e+001
2.178238e+003,9.841339e+001
2.181131e+003,9.823881e+001
2.184023e+003,9.824067e+001
2.186916e+003,9.812354e+001
2.189809e+003,9.822936e+001
2.192702e+003,9.810528e+001
2.195594e+003,9.825098e+001
2.198487e+003,9.826220e+001
2.201380e+003,9.817719e+001
2.204273e+003,9.832838e+001
2.207166e+003,9.820677e+001
2.210058e+003,9.805841e+001
2.212951e+003,9.839758e+001
2.215844e+003,9.836874e+001
2.218736e+003,9.827491e+001
2.221629e+003,9.815647e+001
2.224522e+003,9.821782e+001
2.227415e+003,9.843172e+001
2.230307e+003,9.824016e+001
2.233200e+003,9.826526e+001
2.236093e+003,9.810586e+001
2.238986e+003,9.805385e+001
2.241878e+003,9.828455e+001
2.244771e+003,9.813321e+001
2.247664e+003,9.829488e+001
2.250557e+003,9.809483e+001
2.253449e+003,9.814433e+001
2.256342e+003,9.814437e+001
2.259235e+003,9.807226e+001
2.262128e+003,9.803103e+001
2.265020e+003,9.812588e+001
2.267913e+003,9.795964e+001
2.270806e+003,9.791928e+001
2.273699e+003,9.797259e+001
2.276591e+003,9.796106e+001
2.279484e+003,9.800352e+001
2.282377e+003,9.786577e+001
2.285270e+003,9.779044e+001
2.288162e+003,9.769513e+001
2.291055e+003,9.744298e+001
2.293948e+003,9.752428e+001
2.296841e+003,9.720518e+001
2.299733e+003,9.703863e+001
2.302626e+003,9.679637e+001
2.305519e+003,9.648579e+001
2.308412e+003,9.584268e+001
2.311304e+003,9.549826e+001
2.314197e+003,9.537487e+001
2.317090e+003,9.468896e+001
2.319983e+003,9.409863e+001
2.322875e+003,9.323971e+001
2.325768e+003,9.326566e+001
2.328661e+003,9.277083e+001
2.331553e+003,9.230621e+001
2.334446e+003,9.239348e+001
2.337339e+003,9.206284e+001
2.340232e+003,9.196371e+001
2.343125e+003,9.179556e+001
2.346017e+003,9.263689e+001
2.348910e+003,9.437353e+001
2.351803e+003,9.247592e+001
2.354696e+003,9.104003e+001
2.357588e+003,8.993390e+001
2.360481e+003,8.991725e+001
2.363374e+003,9.028305e+001
2.366267e+003,9.130511e+001
2.369159e+003,9.213497e+001
2.372052e+003,9.356046e+001
2.374945e+003,9.487318e+001
2.377837e+003,9.605346e+001
2.380730e+003,9.687891e+001
2.383623e+003,9.774991e+001
2.386516e+003,9.814793e+001
2.389408e+003,9.828069e+001
2.392301e+003,9.827430e+001
2.395194e+003,9.822626e+001
2.398087e+003,9.822487e+001
2.400979e+003,9.825986e+001
2.403872e+003,9.824178e+001
2.406765e+003,9.818271e+001
2.409658e+003,9.807706e+001
2.412551e+003,9.809966e+001
2.415443e+003,9.809277e+001
2.418336e+003,9.802245e+001
2.421229e+003,9.802550e+001
2.424121e+003,9.814855e+001
2.427014e+003,9.818374e+001
2.429907e+003,9.829484e+001
2.432800e+003,9.809483e+001
2.435692e+003,9.818441e+001
2.438585e+003,9.816593e+001
2.441478e+003,9.815250e+001
2.444371e+003,9.820408e+001
2.447263e+003,9.815326e+001
2.450156e+003,9.820648e+001
2.453049e+003,9.819390e+001
2.455942e+003,9.811490e+001
2.458834e+003,9.822393e+001
2.461727e+003,9.818409e+001
2.464620e+003,9.814653e+001
2.467513e+003,9.817532e+001
2.470405e+003,9.818082e+001
2.473298e+003,9.815594e+001
2.476191e+003,9.797318e+001
2.479084e+003,9.811176e+001
2.481976e+003,9.808070e+001
2.484869e+003,9.805988e+001
2.487762e+003,9.811569e+001
2.490655e+003,9.809876e+001
2.493547e+003,9.811833e+001
2.496440e+003,9.804928e+001
2.499333e+003,9.805092e+001
2.502226e+003,9.804691e+001
2.505118e+003,9.811441e+001
2.508011e+003,9.815324e+001
2.510904e+003,9.811770e+001
2.513797e+003,9.812008e+001
2.516689e+003,9.807027e+001
2.519582e+003,9.802354e+001
2.522475e+003,9.800702e+001
2.525368e+003,9.794615e+001
2.528260e+003,9.801726e+001
2.531153e+003,9.792113e+001
2.534046e+003,9.784347e+001
2.536938e+003,9.792853e+001
2.539831e+003,9.788325e+001
2.542724e+003,9.792149e+001
2.545617e+003,9.792065e+001
2.548510e+003,9.799807e+001
2.551402e+003,9.785111e+001
2.554295e+003,9.797977e+001
2.557188e+003,9.788259e+001
2.560081e+003,9.790281e+001
2.562973e+003,9.796920e+001
2.565866e+003,9.775775e+001
2.568759e+003,9.782439e+001
2.571652e+003,9.776563e+001
2.574544e+003,9.784356e+001
2.577437e+003,9.772913e+001
2.580330e+003,9.779590e+001
2.583222e+003,9.788474e+001
2.586115e+003,9.781272e+001
2.589008e+003,9.778586e+001
2.591901e+003,9.784045e+001
2.594793e+003,9.785355e+001
2.597686e+003,9.771724e+001
2.600579e+003,9.777357e+001
2.603472e+003,9.774910e+001
2.606365e+003,9.765327e+001
2.609257e+003,9.769749e+001
2.612150e+003,9.768217e+001
2.615043e+003,9.770230e+001
2.617936e+003,9.769940e+001
2.620828e+003,9.771811e+001
2.623721e+003,9.773676e+001
2.626614e+003,9.758038e+001
2.629506e+003,9.762648e+001
2.632399e+003,9.761781e+001
2.635292e+003,9.759452e+001
2.638185e+003,9.759351e+001
2.641077e+003,9.756725e+001
2.643970e+003,9.747441e+001
2.646863e+003,9.749398e+001
2.649756e+003,9.744415e+001
2.652648e+003,9.752094e+001
2.655541e+003,9.745757e+001
2.658434e+003,9.747339e+001
2.661327e+003,9.748058e+001
2.664219e+003,9.748641e+001
2.667112e+003,9.751781e+001
2.670005e+003,9.755063e+001
2.672898e+003,9.747517e+001
2.675790e+003,9.743022e+001
2.678683e+003,9.747041e+001
2.681576e+003,9.749258e+001
2.684469e+003,9.744748e+001
2.687361e+003,9.747559e+001
2.690254e+003,9.743414e+001
2.693147e+003,9.740432e+001
2.696040e+003,9.741045e+001
2.698932e+003,9.739874e+001
2.701825e+003,9.746513e+001
2.704718e+003,9.738664e+001
2.707611e+003,9.732431e+001
2.710503e+003,9.734171e+001
2.713396e+003,9.732552e+001
2.716289e+003,9.733803e+001
2.719182e+003,9.732223e+001
2.722074e+003,9.728534e+001
2.724967e+003,9.730242e+001
2.727860e+003,9.726578e+001
2.730753e+003,9.728880e+001
2.733645e+003,9.728188e+001
2.736538e+003,9.723831e+001
2.739431e+003,9.721417e+001
2.742323e+003,9.719420e+001
2.745216e+003,9.716840e+001
2.748109e+003,9.706722e+001
2.751002e+003,9.714330e+001
2.753895e+003,9.709279e+001
2.756787e+003,9.709666e+001
2.759680e+003,9.709354e+001
2.762573e+003,9.708672e+001
2.765466e+003,9.699966e+001
2.768358e+003,9.692400e+001
2.771251e+003,9.693820e+001
2.774144e+003,9.687708e+001
2.777037e+003,9.688029e+001
2.779929e+003,9.686793e+001
2.782822e+003,9.682848e+001
2.785715e+003,9.679778e+001
2.788607e+003,9.677024e+001
2.791500e+003,9.668873e+001
2.794393e+003,9.668138e+001
2.797286e+003,9.662634e+001
2.800178e+003,9.652254e+001
2.803071e+003,9.646782e+001
2.805964e+003,9.632214e+001
2.808857e+003,9.617663e+001
2.811750e+003,9.604247e+001
2.814642e+003,9.581003e+001
2.817535e+003,9.566998e+001
2.820428e+003,9.550314e+001
2.823321e+003,9.531148e+001
2.826213e+003,9.501521e+001
2.829106e+003,9.482047e+001
2.831999e+003,9.460876e+001
2.834891e+003,9.421166e+001
2.837784e+003,9.364851e+001
2.840677e+003,9.291842e+001
2.843570e+003,9.190237e+001
2.846462e+003,9.041744e+001
2.849355e+003,8.864439e+001
2.852248e+003,8.706987e+001
2.855141e+003,8.530611e+001
2.858033e+003,8.352452e+001
2.860926e+003,8.186684e+001
2.863819e+003,8.079225e+001
2.866712e+003,8.106334e+001
2.869604e+003,8.229513e+001
2.872497e+003,8.435532e+001
2.875390e+003,8.625414e+001
2.878283e+003,8.752933e+001
2.881175e+003,8.816622e+001
2.884068e+003,8.822752e+001
2.886961e+003,8.761696e+001
2.889854e+003,8.628293e+001
2.892746e+003,8.483385e+001
2.895639e+003,8.433978e+001
2.898532e+003,8.488185e+001
2.901425e+003,8.481877e+001
2.904317e+003,8.411324e+001
2.907210e+003,8.327026e+001
2.910103e+003,8.226792e+001
2.912996e+003,8.126013e+001
2.915888e+003,8.022216e+001
2.918781e+003,7.913659e+001
2.921674e+003,7.801353e+001
2.924567e+003,7.707817e+001
2.927459e+003,7.649941e+001
2.930352e+003,7.587959e+001
2.933245e+003,7.481802e+001
2.936137e+003,7.403441e+001
2.939030e+003,7.367785e+001
2.941923e+003,7.342620e+001
2.944816e+003,7.340318e+001
2.947708e+003,7.419588e+001
2.950601e+003,7.571504e+001
2.953494e+003,7.691027e+001
2.956387e+003,7.813989e+001
2.959280e+003,8.017130e+001
2.962172e+003,8.250977e+001
2.965065e+003,8.458631e+001
2.967958e+003,8.648713e+001
2.970851e+003,8.827359e+001
2.973743e+003,9.001646e+001
2.976636e+003,9.129624e+001
2.979529e+003,9.249680e+001
2.982422e+003,9.335258e+001
2.985314e+003,9.402718e+001
2.988207e+003,9.462927e+001
2.991100e+003,9.504917e+001
2.993992e+003,9.547219e+001
2.996885e+003,9.571913e+001
2.999778e+003,9.600401e+001
3.002671e+003,9.613839e+001
3.005563e+003,9.629340e+001
3.008456e+003,9.647559e+001
3.011349e+003,9.655890e+001
3.014242e+003,9.659447e+001
3.017135e+003,9.664243e+001
3.020027e+003,9.666472e+001
3.022920e+003,9.684045e+001
3.025813e+003,9.671528e+001
3.028706e+003,9.676484e+001
3.031598e+003,9.674856e+001
3.034491e+003,9.680895e+001
3.037384e+003,9.683632e+001
3.040276e+003,9.684062e+001
3.043169e+003,9.674871e+001
3.046062e+003,9.674573e+001
3.048955e+003,9.690353e+001
3.051847e+003,9.682285e+001
3.054740e+003,9.675382e+001
3.057633e+003,9.679220e+001
3.060526e+003,9.681275e+001
3.063418e+003,9.680746e+001
3.066311e+003,9.684353e+001
3.069204e+003,9.683373e+001
3.072097e+003,9.679512e+001
3.074990e+003,9.676790e+001
3.077882e+003,9.680386e+001
3.080775e+003,9.687434e+001
3.083668e+003,9.669575e+001
3.086560e+003,9.681649e+001
3.089453e+003,9.679125e+001
3.092346e+003,9.685857e+001
3.095239e+003,9.680962e+001
3.098131e+003,9.686046e+001
3.101024e+003,9.677340e+001
3.103917e+003,9.681452e+001
3.106810e+003,9.671287e+001
3.109702e+003,9.676512e+001
3.112595e+003,9.682761e+001
3.115488e+003,9.680834e+001
3.118381e+003,9.677776e+001
3.121273e+003,9.670736e+001
3.124166e+003,9.668156e+001
3.127059e+003,9.674496e+001
3.129952e+003,9.679635e+001
3.132844e+003,9.674219e+001
3.135737e+003,9.669585e+001
3.138630e+003,9.671701e+001
3.141522e+003,9.671312e+001
3.144415e+003,9.669270e+001
3.147308e+003,9.676749e+001
3.150201e+003,9.669307e+001
3.153094e+003,9.660925e+001
3.155986e+003,9.667873e+001
3.158879e+003,9.659178e+001
3.161772e+003,9.676308e+001
3.164665e+003,9.663498e+001
3.167557e+003,9.669858e+001
3.170450e+003,9.662408e+001
3.173343e+003,9.666161e+001
3.176236e+003,9.651138e+001
3.179128e+003,9.660462e+001
3.182021e+003,9.663523e+001
3.184914e+003,9.662498e+001
3.187806e+003,9.675650e+001
3.190699e+003,9.662090e+001
3.193592e+003,9.657594e+001
3.196485e+003,9.657513e+001
3.199377e+003,9.656866e+001
3.202270e+003,9.657647e+001
3.205163e+003,9.657761e+001
3.208056e+003,9.661600e+001
3.210948e+003,9.662826e+001
3.213841e+003,9.655302e+001
3.216734e+003,9.666894e+001
3.219627e+003,9.666744e+001
3.222520e+003,9.650181e+001
3.225412e+003,9.658482e+001
3.228305e+003,9.666135e+001
3.231198e+003,9.658572e+001
3.234091e+003,9.667448e+001
3.236983e+003,9.661642e+001
3.239876e+003,9.649989e+001
3.242769e+003,9.663191e+001
3.245661e+003,9.658334e+001
3.248554e+003,9.661054e+001
3.251447e+003,9.647692e+001
3.254340e+003,9.650246e+001
3.257232e+003,9.655026e+001
3.260125e+003,9.665843e+001
3.263018e+003,9.649754e+001
3.265911e+003,9.655820e+001
3.268803e+003,9.657600e+001
3.271696e+003,9.655176e+001
3.274589e+003,9.654714e+001
3.277482e+003,9.645145e+001
3.280375e+003,9.655651e+001
3.283267e+003,9.657181e+001
3.286160e+003,9.652308e+001
3.289053e+003,9.647281e+001
3.291945e+003,9.657005e+001
3.294838e+003,9.646354e+001
3.297731e+003,9.657365e+001
3.300624e+003,9.658459e+001
3.303516e+003,9.655544e+001
3.306409e+003,9.664335e+001
3.309302e+003,9.656702e+001
3.312195e+003,9.655920e+001
3.315087e+003,9.658401e+001
3.317980e+003,9.650932e+001
3.320873e+003,9.656378e+001
3.323766e+003,9.659973e+001
3.326658e+003,9.660768e+001
3.329551e+003,9.664169e+001
3.332444e+003,9.651337e+001
3.335337e+003,9.651620e+001
3.338229e+003,9.650750e+001
3.341122e+003,9.654970e+001
3.344015e+003,9.645251e+001
3.346907e+003,9.659299e+001
3.349800e+003,9.645981e+001
3.352693e+003,9.661194e+001
3.355586e+003,9.663590e+001
3.358479e+003,9.657169e+001
3.361371e+003,9.661950e+001
3.364264e+003,9.658627e+001
3.367157e+003,9.663525e+001
3.370050e+003,9.662227e+001
3.372942e+003,9.661418e+001
3.375835e+003,9.659157e+001
3.378728e+003,9.664755e+001
3.381621e+003,9.674441e+001
3.384513e+003,9.652049e+001
3.387406e+003,9.666483e+001
3.390299e+003,9.657003e+001
3.393191e+003,9.663803e+001
3.396084e+003,9.666369e+001
3.398977e+003,9.667324e+001
3.401870e+003,9.666427e+001
3.404762e+003,9.658894e+001
3.407655e+003,9.663222e+001
3.410548e+003,9.667913e+001
3.413441e+003,9.657005e+001
3.416333e+003,9.662020e+001
3.419226e+003,9.662330e+001
3.422119e+003,9.656124e+001
3.425012e+003,9.651539e+001
3.427905e+003,9.637913e+001
3.430797e+003,9.625305e+001
3.433690e+003,9.621609e+001
3.436583e+003,9.604848e+001
3.439475e+003,9.605170e+001
3.442368e+003,9.632026e+001
3.445261e+003,9.634765e+001
3.448154e+003,9.628739e+001
3.451046e+003,9.642806e+001
3.453939e+003,9.654059e+001
3.456832e+003,9.645202e+001
3.459725e+003,9.651999e+001
3.462617e+003,9.666586e+001
3.465510e+003,9.692874e+001
3.468403e+003,9.671710e+001
3.471296e+003,9.697460e+001
3.474188e+003,9.691814e+001
3.477081e+003,9.711333e+001
3.479974e+003,9.692918e+001
3.482867e+003,9.715522e+001
3.485760e+003,9.709058e+001
3.488652e+003,9.714336e+001
3.491545e+003,9.721141e+001
3.494438e+003,9.697618e+001
3.497330e+003,9.705350e+001
3.500223e+003,9.718341e+001
3.503116e+003,9.719810e+001
3.506009e+003,9.728092e+001
3.508901e+003,9.716257e+001
3.511794e+003,9.722781e+001
3.514687e+003,9.733624e+001
3.517580e+003,9.730499e+001
3.520472e+003,9.725305e+001
3.523365e+003,9.734508e+001
3.526258e+003,9.724077e+001
3.529151e+003,9.733447e+001
3.532043e+003,9.737030e+001
3.534936e+003,9.743580e+001
3.537829e+003,9.745925e+001
3.540722e+003,9.740275e+001
3.543614e+003,9.737084e+001
3.546507e+003,9.741443e+001
3.549400e+003,9.752605e+001
3.552292e+003,9.743242e+001
3.555185e+003,9.754488e+001
3.558078e+003,9.760215e+001
3.560971e+003,9.775888e+001
3.563864e+003,9.762366e+001
3.566756e+003,9.770095e+001
3.569649e+003,9.771103e+001
3.572542e+003,9.776733e+001
3.575435e+003,9.786150e+001
3.578327e+003,9.782668e+001
3.581220e+003,9.777281e+001
3.584113e+003,9.792450e+001
3.587006e+003,9.796596e+001
3.589898e+003,9.782825e+001
3.592791e+003,9.767485e+001
3.595684e+003,9.786748e+001
3.598576e+003,9.785419e+001
3.601469e+003,9.763272e+001
3.604362e+003,9.771914e+001
3.607255e+003,9.777175e+001
3.610147e+003,9.795361e+001
3.613040e+003,9.815697e+001
3.615933e+003,9.802264e+001
3.618826e+003,9.808494e+001
3.621719e+003,9.782260e+001
3.624611e+003,9.798280e+001
3.627504e+003,9.810644e+001
3.630397e+003,9.804322e+001
3.633290e+003,9.810999e+001
3.636182e+003,9.808100e+001
3.639075e+003,9.829608e+001
3.641968e+003,9.834316e+001
3.644860e+003,9.860059e+001
3.647753e+003,9.857847e+001
3.650646e+003,9.876861e+001
3.653539e+003,9.845509e+001
3.656431e+003,9.877216e+001
3.659324e+003,9.872192e+001
3.662217e+003,9.863853e+001
3.665110e+003,9.869029e+001
3.668002e+003,9.865326e+001
3.670895e+003,9.883237e+001
3.673788e+003,9.862921e+001
3.676681e+003,9.884654e+001
3.679573e+003,9.871970e+001
3.682466e+003,9.862858e+001
3.685359e+003,9.874481e+001
3.688252e+003,9.904948e+001
3.691145e+003,9.889868e+001
3.694037e+003,9.863593e+001
3.696930e+003,9.851476e+001
3.699823e+003,9.850331e+001
3.702715e+003,9.849738e+001
3.705608e+003,9.847461e+001
3.708501e+003,9.854044e+001
3.711394e+003,9.888721e+001
3.714286e+003,9.873740e+001
3.717179e+003,9.875514e+001
3.720072e+003,9.856848e+001
3.722965e+003,9.849937e+001
3.725857e+003,9.844473e+001
3.728750e+003,9.846847e+001
3.731643e+003,9.862801e+001
3.734536e+003,9.843141e+001
3.737428e+003,9.874723e+001
3.740321e+003,9.872298e+001
3.743214e+003,9.882016e+001
3.746107e+003,9.895302e+001
3.748999e+003,9.928852e+001
3.751892e+003,9.929066e+001
3.754785e+003,9.882263e+001
3.757677e+003,9.896716e+001
3.760570e+003,9.905544e+001
3.763463e+003,9.887797e+001
3.766356e+003,9.892023e+001
3.769249e+003,9.897209e+001
3.772141e+003,9.885991e+001
3.775034e+003,9.886430e+001
3.777927e+003,9.890443e+001
3.780820e+003,9.891450e+001
3.783712e+003,9.887257e+001
3.786605e+003,9.893379e+001
3.789498e+003,9.893714e+001
3.792391e+003,9.888149e+001
3.795283e+003,9.889492e+001
3.798176e+003,9.891305e+001
3.801069e+003,9.884071e+001
3.803961e+003,9.896017e+001
3.806854e+003,9.916912e+001
3.809747e+003,9.890726e+001
3.812640e+003,9.894936e+001
3.815532e+003,9.928165e+001
3.818425e+003,9.895276e+001
3.821318e+003,9.904614e+001
3.824211e+003,9.881913e+001
3.827104e+003,9.894870e+001
3.829996e+003,9.891638e+001
3.832889e+003,9.893393e+001
3.835782e+003,9.886803e+001
3.838675e+003,9.904893e+001
3.841567e+003,9.890135e+001
3.844460e+003,9.890872e+001
3.847353e+003,9.877871e+001
3.850245e+003,9.891183e+001
3.853138e+003,9.933647e+001
3.856031e+003,9.883661e+001
3.858924e+003,9.887631e+001
3.861816e+003,9.882001e+001
3.864709e+003,9.916692e+001
3.867602e+003,9.890857e+001
3.870495e+003,9.911739e+001
3.873387e+003,9.885973e+001
3.876280e+003,9.886050e+001
3.879173e+003,9.890331e+001
3.882066e+003,9.884975e+001
3.884958e+003,9.897467e+001
3.887851e+003,9.882843e+001
3.890744e+003,9.894501e+001
3.893637e+003,9.889198e+001
3.896529e+003,9.872937e+001
3.899422e+003,9.877180e+001
3.902315e+003,9.895590e+001
3.905208e+003,9.897381e+001
3.908100e+003,9.881054e+001
3.910993e+003,9.884442e+001
3.913886e+003,9.885454e+001
3.916779e+003,9.892233e+001
3.919671e+003,9.891819e+001
3.922564e+003,9.885133e+001
3.925457e+003,9.887775e+001
3.928350e+003,9.880040e+001
3.931242e+003,9.882631e+001
3.934135e+003,9.886870e+001
3.937028e+003,9.877807e+001
3.939921e+003,9.887604e+001
3.942813e+003,9.892135e+001
3.945706e+003,9.890533e+001
3.948599e+003,9.885415e+001
3.951492e+003,9.893266e+001
3.954384e+003,9.876803e+001
3.957277e+003,9.888132e+001
3.960170e+003,9.879852e+001
3.963063e+003,9.876967e+001
3.965955e+003,9.884255e+001
3.968848e+003,9.886491e+001
3.971741e+003,9.878954e+001
3.974634e+003,9.869034e+001
3.977526e+003,9.885179e+001
3.980419e+003,9.874199e+001
3.983312e+003,9.877090e+001
3.986205e+003,9.882599e+001
3.989097e+003,9.892080e+001
3.991990e+003,9.884011e+001
3.994883e+003,9.875366e+001
3.997776e+003,9.870603e+001
4.000668e+003,0.000000e+000