File: FTIR Data (PCL)/All Data/PCL_NaOH_PDA_1_3.CSV
3.991989e+002,0.000000e+000
4.020916e+002,0.000000e+000
4.049844e+002,0.000000e+000
4.078771e+002,0.000000e+000
4.107699e+002,0.000000e+000
4.136626e+002,0.000000e+000
4.165554e+002,0.000000e+000
4.194481e+002,0.000000e+000
4.223409e+002,0.000000e+000
4.252336e+002,0.000000e+000
4.281263e+002,0.000000e+000
4.310191e+002,0.000000e+000
4.339118e+002,0.000000e+000
4.368046e+002,0.000000e+000
4.396973e+002,0.000000e+000
4.425901e+002,0.000000e+000
4.454828e+002,0.000000e+000
4.483756e+002,0.000000e+000
4.512683e+002,0.000000e+000
4.541611e+002,0.000000e+000
4.570538e+002,0.000000e+000
4.599466e+002,0.000000e+000
4.628393e+002,0.000000e+000
4.657321e+002,0.000000e+000
4.686248e+002,0.000000e+000
4.715175e+002,0.000000e+000
4.744103e+002,0.000000e+000
4.773030e+002,0.000000e+000
4.801958e+002,0.000000e+000
4.830885e+002,0.000000e+000
4.859813e+002,0.000000e+000
4.888740e+002,0.000000e+000
4.917668e+002,0.000000e+000
4.946595e+002,0.000000e+000
4.975523e+002,0.000000e+000
5.004450e+002,0.000000e+000
5.033378e+002,0.000000e+000
5.062305e+002,0.000000e+000
5.091233e+002,0.000000e+000
5.120160e+002,0.000000e+000
5.149088e+002,0.000000e+000
5.178015e+002,0.000000e+000
5.206942e+002,0.000000e+000
5.235870e+002,0.000000e+000
5.264797e+002,0.000000e+000
5.293725e+002,0.000000e+000
5.322652e+002,0.000000e+000
5.351580e+002,0.000000e+000
5.380507e+002,0.000000e+000
5.409435e+002,0.000000e+000
5.438362e+002,0.000000e+000
5.467289e+002,0.000000e+000
5.496217e+002,#NaN
5.525145e+002,#NaN
5.554072e+002,#NaN
5.582999e+002,#NaN
5.611927e+002,#NaN
5.640854e+002,#NaN
5.669782e+002,#NaN
5.698709e+002,#NaN
5.727637e+002,#NaN
5.756564e+002,#NaN
5.785492e+002,#NaN
5.814419e+002,#NaN
5.843347e+002,#NaN
5.872274e+002,#NaN
5.901202e+002,#NaN
5.930129e+002,#NaN
5.959056e+002,#NaN
5.987984e+002,#NaN
6.016912e+002,#NaN
6.045839e+002,#NaN
6.074766e+002,#NaN
6.103694e+002,#NaN
6.132621e+002,#NaN
6.161548e+002,#NaN
6.190476e+002,#NaN
6.219404e+002,#NaN
6.248331e+002,#NaN
6.277258e+002,#NaN
6.306186e+002,#NaN
6.335114e+002,#NaN
6.364041e+002,#NaN
6.392968e+002,#NaN
6.421896e+002,#NaN
6.450823e+002,#NaN
6.479751e+002,#NaN
6.508679e+002,#NaN
6.537606e+002,#NaN
6.566533e+002,#NaN
6.595461e+002,#NaN
6.624388e+002,#NaN
6.653315e+002,#NaN
6.682243e+002,#NaN
6.711171e+002,#NaN
6.740098e+002,#NaN
6.769025e+002,#NaN
6.797953e+002,#NaN
6.826880e+002,#NaN
6.855808e+002,#NaN
6.884735e+002,#NaN
6.913663e+002,#NaN
6.942590e+002,#NaN
6.971518e+002,#NaN
7.000445e+002,#NaN
7.029373e+002,#NaN
7.058300e+002,#NaN
7.087228e+002,#NaN
7.116155e+002,#NaN
7.145082e+002,#NaN
7.174010e+002,#NaN
7.202938e+002,#NaN
7.231865e+002,#NaN
7.260792e+002,#NaN
7.289720e+002,#NaN
7.318647e+002,#NaN
7.347575e+002,#NaN
7.376502e+002,#NaN
7.405430e+002,#NaN
7.434357e+002,#NaN
7.463285e+002,#NaN
7.492212e+002,#NaN
7.521140e+002,#NaN
7.550067e+002,#NaN
7.578995e+002,#NaN
7.607922e+002,#NaN
7.636849e+002,#NaN
7.665777e+002,#NaN
7.694705e+002,#NaN
7.723632e+002,#NaN
7.752559e+002,#NaN
7.781487e+002,#NaN
7.810414e+002,#NaN
7.839341e+002,#NaN
7.868269e+002,#NaN
7.897197e+002,#NaN
7.926124e+002,#NaN
7.955051e+002,#NaN
7.983979e+002,#NaN
8.012906e+002,#NaN
8.041834e+002,#NaN
8.070761e+002,#NaN
8.099689e+002,#NaN
8.128616e+002,#NaN
8.157544e+002,#NaN
8.186472e+002,#NaN
8.215399e+002,#NaN
8.244326e+002,#NaN
8.273254e+002,#NaN
8.302181e+002,#NaN
8.331108e+002,#NaN
8.360036e+002,#NaN
8.388964e+002,#NaN
8.417891e+002,#NaN
8.446818e+002,#NaN
8.475746e+002,#NaN
8.504673e+002,#NaN
8.533601e+002,#NaN
8.562528e+002,#NaN
8.591456e+002,#NaN
8.620383e+002,#NaN
8.649311e+002,#NaN
8.678238e+002,#NaN
8.707166e+002,#NaN
8.736093e+002,#NaN
8.765021e+002,#NaN
8.793948e+002,#NaN
8.822875e+002,#NaN
8.851803e+002,#NaN
8.880731e+002,#NaN
8.909658e+002,#NaN
8.938585e+002,#NaN
8.967513e+002,#NaN
8.996440e+002,#NaN
9.025368e+002,#NaN
9.054295e+002,#NaN
9.083223e+002,#NaN
9.112150e+002,#NaN
9.141078e+002,#NaN
9.170005e+002,#NaN
9.198932e+002,#NaN
9.227860e+002,#NaN
9.256788e+002,#NaN
9.285715e+002,#NaN
9.314642e+002,#NaN
9.343570e+002,#NaN
9.372498e+002,#NaN
9.401425e+002,#NaN
9.430352e+002,#NaN
9.459280e+002,#NaN
9.488207e+002,#NaN
9.517134e+002,#NaN
9.546062e+002,#NaN
9.574990e+002,#NaN
9.603917e+002,#NaN
9.632844e+002,#NaN
9.661772e+002,#NaN
9.690699e+002,#NaN
9.719627e+002,#NaN
9.748554e+002,#NaN
9.777482e+002,#NaN
9.806409e+002,#NaN
9.835337e+002,#NaN
9.864265e+002,#NaN
9.893192e+002,#NaN
9.922119e+002,#NaN
9.951047e+002,#NaN
9.979974e+002,#NaN
1.000890e+003,#NaN
1.003783e+003,#NaN
1.006676e+003,#NaN
1.009568e+003,#NaN
1.012461e+003,#NaN
1.015354e+003,#NaN
1.018247e+003,#NaN
1.021139e+003,#NaN
1.024032e+003,#NaN
1.026925e+003,#NaN
1.029818e+003,#NaN
1.032710e+003,#NaN
1.035603e+003,#NaN
1.038496e+003,#NaN
1.041389e+003,#NaN
1.044281e+003,#NaN
1.047174e+003,#NaN
1.050067e+003,#NaN
1.052960e+003,#NaN
1.055852e+003,#NaN
1.058745e+003,#NaN
1.061638e+003,#NaN
1.064531e+003,#NaN
1.067423e+003,#NaN
1.070316e+003,#NaN
1.073209e+003,#NaN
1.076102e+003,#NaN
1.078994e+003,#NaN
1.081887e+003,#NaN
1.084780e+003,#NaN
1.087673e+003,#NaN
1.090565e+003,#NaN
1.093458e+003,#NaN
1.096351e+003,#NaN
1.099244e+003,#NaN
1.102136e+003,#NaN
1.105029e+003,#NaN
1.107922e+003,#NaN
1.110815e+003,#NaN
1.113707e+003,#NaN
1.116600e+003,#NaN
1.119493e+003,#NaN
1.122385e+003,#NaN
1.125278e+003,#NaN
1.128171e+003,#NaN
1.131064e+003,#NaN
1.133957e+003,#NaN
1.136849e+003,#NaN
1.139742e+003,#NaN
1.142635e+003,#NaN
1.145527e+003,#NaN
1.148420e+003,#NaN
1.151313e+003,#NaN
1.154206e+003,#NaN
1.157099e+003,#NaN
1.159991e+003,#NaN
1.162884e+003,#NaN
1.165777e+003,#NaN
1.168669e+003,#NaN
1.171562e+003,#NaN
1.174455e+003,#NaN
1.177348e+003,#NaN
1.180240e+003,#NaN
1.183133e+003,#NaN
1.186026e+003,#NaN
1.188919e+003,#NaN
1.191811e+003,#NaN
1.194704e+003,#NaN
1.197597e+003,#NaN
1.200490e+003,#NaN
1.203382e+003,#NaN
1.206275e+003,#NaN
1.209168e+003,#NaN
1.212061e+003,#NaN
1.214953e+003,#NaN
1.217846e+003,#NaN
1.220739e+003,#NaN
1.223632e+003,#NaN
1.226524e+003,#NaN
1.229417e+003,#NaN
1.232310e+003,#NaN
1.235203e+003,#NaN
1.238095e+003,#NaN
1.240988e+003,#NaN
1.243881e+003,#NaN
1.246774e+003,#NaN
1.249666e+003,#NaN
1.252559e+003,#NaN
1.255452e+003,#NaN
1.258345e+003,#NaN
1.261237e+003,#NaN
1.264130e+003,#NaN
1.267023e+003,#NaN
1.269916e+003,#NaN
1.272808e+003,#NaN
1.275701e+003,#NaN
1.278594e+003,#NaN
1.281487e+003,#NaN
1.284379e+003,#NaN
1.287272e+003,#NaN
1.290165e+003,#NaN
1.293057e+003,#NaN
1.295950e+003,#NaN
1.298843e+003,#NaN
1.301736e+003,#NaN
1.304629e+003,#NaN
1.307521e+003,#NaN
1.310414e+003,#NaN
1.313307e+003,#NaN
1.316200e+003,#NaN
1.319092e+003,#NaN
1.321985e+003,#NaN
1.324878e+003,#NaN
1.327771e+003,#NaN
1.330663e+003,#NaN
1.333556e+003,#NaN
1.336449e+003,#NaN
1.339342e+003,#NaN
1.342234e+003,#NaN
1.345127e+003,#NaN
1.348020e+003,#NaN
1.350912e+003,#NaN
1.353805e+003,#NaN
1.356698e+003,#NaN
1.359591e+003,#NaN
1.362484e+003,#NaN
1.365376e+003,#NaN
1.368269e+003,#NaN
1.371162e+003,#NaN
1.374054e+003,#NaN
1.376947e+003,#NaN
1.379840e+003,#NaN
1.382733e+003,#NaN
1.385625e+003,#NaN
1.388518e+003,#NaN
1.391411e+003,#NaN
1.394304e+003,#NaN
1.397196e+003,#NaN
1.400089e+003,#NaN
1.402982e+003,#NaN
1.405875e+003,#NaN
1.408767e+003,#NaN
1.411660e+003,#NaN
1.414553e+003,#NaN
1.417446e+003,#NaN
1.420338e+003,#NaN
1.423231e+003,#NaN
1.426124e+003,#NaN
1.429017e+003,#NaN
1.431909e+003,#NaN
1.434802e+003,#NaN
1.437695e+003,#NaN
1.440588e+003,#NaN
1.443480e+003,#NaN
1.446373e+003,#NaN
1.449266e+003,#NaN
1.452159e+003,#NaN
1.455051e+003,#NaN
1.457944e+003,#NaN
1.460837e+003,#NaN
1.463730e+003,#NaN
1.466622e+003,#NaN
1.469515e+003,#NaN
1.472408e+003,#NaN
1.475301e+003,#NaN
1.478193e+003,#NaN
1.481086e+003,#NaN
1.483979e+003,#NaN
1.486872e+003,#NaN
1.489764e+003,#NaN
1.492657e+003,#NaN
1.495550e+003,#NaN
1.498443e+003,#NaN
1.501335e+003,#NaN
1.504228e+003,#NaN
1.507121e+003,#NaN
1.510014e+003,#NaN
1.512906e+003,#NaN
1.515799e+003,#NaN
1.518692e+003,#NaN
1.521584e+003,#NaN
1.524477e+003,#NaN
1.527370e+003,#NaN
1.530263e+003,#NaN
1.533156e+003,#NaN
1.536048e+003,#NaN
1.538941e+003,#NaN
1.541834e+003,#NaN
1.544726e+003,#NaN
1.547619e+003,#NaN
1.550512e+003,#NaN
1.553405e+003,#NaN
1.556297e+003,#NaN
1.559190e+003,#NaN
1.562083e+003,#NaN
1.564976e+003,#NaN
1.567869e+003,#NaN
1.570761e+003,#NaN
1.573654e+003,#NaN
1.576547e+003,#NaN
1.579439e+003,#NaN
1.582332e+003,#NaN
1.585225e+003,#NaN
1.588118e+003,#NaN
1.591010e+003,#NaN
1.593903e+003,#NaN
1.596796e+003,#NaN
1.599689e+003,#NaN
1.602581e+003,#NaN
1.605474e+003,#NaN
1.608367e+003,#NaN
1.611260e+003,#NaN
1.614152e+003,#NaN
1.617045e+003,#NaN
1.619938e+003,#NaN
1.622831e+003,#NaN
1.625723e+003,#NaN
1.628616e+003,#NaN
1.631509e+003,#NaN
1.634402e+003,#NaN
1.637294e+003,#NaN
1.640187e+003,#NaN
1.643080e+003,#NaN
1.645973e+003,#NaN
1.648865e+003,#NaN
1.651758e+003,#NaN
1.654651e+003,#NaN
1.657544e+003,#NaN
1.660436e+003,#NaN
1.663329e+003,#NaN
1.666222e+003,#NaN
1.669115e+003,#NaN
1.672007e+003,#NaN
1.674900e+003,#NaN
1.677793e+003,#NaN
1.680686e+003,#NaN
1.683578e+003,#NaN
1.686471e+003,#NaN
1.689364e+003,#NaN
1.692257e+003,#NaN
1.695149e+003,#NaN
1.698042e+003,#NaN
1.700935e+003,#NaN
1.703828e+003,#NaN
1.706720e+003,#NaN
1.709613e+003,#NaN
1.712506e+003,#NaN
1.715399e+003,#NaN
1.718291e+003,#NaN
1.721184e+003,#NaN
1.724077e+003,#NaN
1.726969e+003,#NaN
1.729862e+003,#NaN
1.732755e+003,#NaN
1.735648e+003,#NaN
1.738541e+003,#NaN
1.741433e+003,#NaN
1.744326e+003,#NaN
1.747219e+003,#NaN
1.750111e+003,#NaN
1.753004e+003,#NaN
1.755897e+003,#NaN
1.758790e+003,#NaN
1.761682e+003,#NaN
1.764575e+003,#NaN
1.767468e+003,#NaN
1.770361e+003,#NaN
1.773253e+003,#NaN
1.776146e+003,#NaN
1.779039e+003,#NaN
1.781932e+003,#NaN
1.784824e+003,#NaN
1.787717e+003,#NaN
1.790610e+003,#NaN
1.793503e+003,#NaN
1.796395e+003,#NaN
1.799288e+003,#NaN
1.802181e+003,#NaN
1.805074e+003,#NaN
1.807966e+003,#NaN
1.810859e+003,#NaN
1.813752e+003,#NaN
1.816645e+003,#NaN
1.819537e+003,#NaN
1.822430e+003,#NaN
1.825323e+003,#NaN
1.828216e+003,#NaN
1.831108e+003,#NaN
1.834001e+003,#NaN
1.836894e+003,#NaN
1.839787e+003,#NaN
1.842679e+003,#NaN
1.845572e+003,#NaN
1.848465e+003,#NaN
1.851358e+003,#NaN
1.854250e+003,#NaN
1.857143e+003,#NaN
1.860036e+003,#NaN
1.862929e+003,#NaN
1.865821e+003,#NaN
1.868714e+003,#NaN
1.871607e+003,#NaN
1.874500e+003,#NaN
1.877392e+003,#NaN
1.880285e+003,#NaN
1.883178e+003,#NaN
1.886071e+003,#NaN
1.888963e+003,#NaN
1.891856e+003,#NaN
1.894749e+003,#NaN
1.897642e+003,#NaN
1.900534e+003,#NaN
1.903427e+003,#NaN
1.906320e+003,#NaN
1.909213e+003,#NaN
1.912105e+003,#NaN
1.914998e+003,#NaN
1.917891e+003,#NaN
1.920784e+003,#NaN
1.923676e+003,#NaN
1.926569e+003,#NaN
1.929462e+003,#NaN
1.932354e+003,#NaN
1.935247e+003,#NaN
1.938140e+003,#NaN
1.941033e+003,#NaN
1.943926e+003,#NaN
1.946818e+003,#NaN
1.949711e+003,#NaN
1.952604e+003,#NaN
1.955496e+003,#NaN
1.958389e+003,#NaN
1.961282e+003,#NaN
1.964175e+003,#NaN
1.967068e+003,#NaN
1.969960e+003,#NaN
1.972853e+003,#NaN
1.975746e+003,#NaN
1.978638e+003,#NaN
1.981531e+003,#NaN
1.984424e+003,#NaN
1.987317e+003,#NaN
1.990209e+003,#NaN
1.993102e+003,#NaN
1.995995e+003,#NaN
1.998888e+003,#NaN
2.001780e+003,#NaN
2.004673e+003,#NaN
2.007566e+003,#NaN
2.010459e+003,#NaN
2.013351e+003,#NaN
2.016244e+003,#NaN
2.019137e+003,#NaN
2.022030e+003,#NaN
2.024922e+003,#NaN
2.027815e+003,#NaN
2.030708e+003,#NaN
2.033601e+003,#NaN
2.036493e+003,#NaN
2.039386e+003,#NaN
2.042279e+003,#NaN
2.045172e+003,#NaN
2.048064e+003,#NaN
2.050957e+003,#NaN
2.053850e+003,#NaN
2.056743e+003,#NaN
2.059635e+003,#NaN
2.062528e+003,#NaN
2.065421e+003,#NaN
2.068314e+003,#NaN
2.071206e+003,#NaN
2.074099e+003,#NaN
2.076992e+003,#NaN
2.079885e+003,#NaN
2.082777e+003,#NaN
2.085670e+003,#NaN
2.088563e+003,#NaN
2.091456e+003,#NaN
2.094348e+003,#NaN
2.097241e+003,#NaN
2.100134e+003,#NaN
2.103027e+003,#NaN
2.105919e+003,#NaN
2.108812e+003,#NaN
2.111705e+003,#NaN
2.114598e+003,#NaN
2.117490e+003,#NaN
2.120383e+003,#NaN
2.123276e+003,#NaN
2.126168e+003,#NaN
2.129061e+003,#NaN
2.131954e+003,#NaN
2.134847e+003,#NaN
2.137740e+003,#NaN
2.140632e+003,#NaN
2.143525e+003,#NaN
2.146418e+003,#NaN
2.149311e+003,#NaN
2.152203e+003,#NaN
2.155096e+003,#NaN
2.157989e+003,#NaN
2.160882e+003,#NaN
2.163774e+003,#NaN
2.166667e+003,#NaN
2.169560e+003,#NaN
2.172452e+003,#NaN
2.175345e+003,#NaN
2.178238e+003,#NaN
2.181131e+003,#NaN
2.184023e+003,#NaN
2.186916e+003,#NaN
2.189809e+003,#NaN
2.192702e+003,#NaN
2.195594e+003,#NaN
2.198487e+003,#NaN
2.201380e+003,#NaN
2.204273e+003,#NaN
2.207166e+003,#NaN
2.210058e+003,#NaN
2.212951e+003,#NaN
2.215844e+003,#NaN
2.218736e+003,#NaN
2.221629e+003,#NaN
2.224522e+003,#NaN
2.227415e+003,#NaN
2.230307e+003,#NaN
2.233200e+003,#NaN
2.236093e+003,#NaN
2.238986e+003,#NaN
2.241878e+003,#NaN
2.244771e+003,#NaN
2.247664e+003,#NaN
2.250557e+003,#NaN
2.253449e+003,#NaN
2.256342e+003,#NaN
2.259235e+003,#NaN
2.262128e+003,#NaN
2.265020e+003,#NaN
2.267913e+003,#NaN
2.270806e+003,#NaN
2.273699e+003,#NaN
2.276591e+003,#NaN
2.279484e+003,#NaN
2.282377e+003,#NaN
2.285270e+003,#NaN
2.288162e+003,#NaN
2.291055e+003,#NaN
2.293948e+003,#NaN
2.296841e+003,#NaN
2.299733e+003,#NaN
2.302626e+003,#NaN
2.305519e+003,#NaN
2.308412e+003,#NaN
2.311304e+003,#NaN
2.314197e+003,#NaN
2.317090e+003,#NaN
2.319983e+003,#NaN
2.322875e+003,#NaN
2.325768e+003,#NaN
2.328661e+003,#NaN
2.331553e+003,#NaN
2.334446e+003,#NaN
2.337339e+003,#NaN
2.340232e+003,#NaN
2.343125e+003,#NaN
2.346017e+003,#NaN
2.348910e+003,#NaN
2.351803e+003,#NaN
2.354696e+003,#NaN
2.357588e+003,#NaN
2.360481e+003,#NaN
2.363374e+003,#NaN
2.366267e+003,#NaN
2.369159e+003,#NaN
2.372052e+003,#NaN
2.374945e+003,#NaN
2.377837e+003,#NaN
2.380730e+003,#NaN
2.383623e+003,#NaN
2.386516e+003,#NaN
2.389408e+003,#NaN
2.392301e+003,#NaN
2.395194e+003,#NaN
2.398087e+003,#NaN
2.400979e+003,#NaN
2.403872e+003,#NaN
2.406765e+003,#NaN
2.409658e+003,#NaN
2.412551e+003,#NaN
2.415443e+003,#NaN
2.418336e+003,#NaN
2.421229e+003,#NaN
2.424121e+003,#NaN
2.427014e+003,#NaN
2.429907e+003,#NaN
2.432800e+003,#NaN
2.435692e+003,#NaN
2.438585e+003,#NaN
2.441478e+003,#NaN
2.444371e+003,#NaN
2.447263e+003,#NaN
2.450156e+003,#NaN
2.453049e+003,#NaN
2.455942e+003,#NaN
2.458834e+003,#NaN
2.461727e+003,#NaN
2.464620e+003,#NaN
2.467513e+003,#NaN
2.470405e+003,#NaN
2.473298e+003,#NaN
2.476191e+003,#NaN
2.479084e+003,#NaN
2.481976e+003,#NaN
2.484869e+003,#NaN
2.487762e+003,#NaN
2.490655e+003,#NaN
2.493547e+003,#NaN
2.496440e+003,#NaN
2.499333e+003,#NaN
2.502226e+003,#NaN
2.505118e+003,#NaN
2.508011e+003,#NaN
2.510904e+003,#NaN
2.513797e+003,#NaN
2.516689e+003,#NaN
2.519582e+003,#NaN
2.522475e+003,#NaN
2.525368e+003,#NaN
2.528260e+003,#NaN
2.531153e+003,#NaN
2.534046e+003,#NaN
2.536938e+003,#NaN
2.539831e+003,#NaN
2.542724e+003,#NaN
2.545617e+003,#NaN
2.548510e+003,#NaN
2.551402e+003,#NaN
2.554295e+003,#NaN
2.557188e+003,#NaN
2.560081e+003,#NaN
2.562973e+003,#NaN
2.565866e+003,#NaN
2.568759e+003,#NaN
2.571652e+003,#NaN
2.574544e+003,#NaN
2.577437e+003,#NaN
2.580330e+003,#NaN
2.583222e+003,#NaN
2.586115e+003,#NaN
2.589008e+003,#NaN
2.591901e+003,#NaN
2.594793e+003,#NaN
2.597686e+003,#NaN
2.600579e+003,#NaN
2.603472e+003,#NaN
2.606365e+003,#NaN
2.609257e+003,#NaN
2.612150e+003,#NaN
2.615043e+003,#NaN
2.617936e+003,#NaN
2.620828e+003,#NaN
2.623721e+003,#NaN
2.626614e+003,#NaN
2.629506e+003,#NaN
2.632399e+003,#NaN
2.635292e+003,#NaN
2.638185e+003,#NaN
2.641077e+003,#NaN
2.643970e+003,#NaN
2.646863e+003,#NaN
2.649756e+003,#NaN
2.652648e+003,#NaN
2.655541e+003,#NaN
2.658434e+003,#NaN
2.661327e+003,#NaN
2.664219e+003,#NaN
2.667112e+003,#NaN
2.670005e+003,#NaN
2.672898e+003,#NaN
2.675790e+003,#NaN
2.678683e+003,#NaN
2.681576e+003,#NaN
2.684469e+003,#NaN
2.687361e+003,#NaN
2.690254e+003,#NaN
2.693147e+003,#NaN
2.696040e+003,#NaN
2.698932e+003,#NaN
2.701825e+003,#NaN
2.704718e+003,#NaN
2.707611e+003,#NaN
2.710503e+003,#NaN
2.713396e+003,#NaN
2.716289e+003,#NaN
2.719182e+003,#NaN
2.722074e+003,#NaN
2.724967e+003,#NaN
2.727860e+003,#NaN
2.730753e+003,#NaN
2.733645e+003,#NaN
2.736538e+003,#NaN
2.739431e+003,#NaN
2.742323e+003,#NaN
2.745216e+003,#NaN
2.748109e+003,#NaN
2.751002e+003,#NaN
2.753895e+003,#NaN
2.756787e+003,#NaN
2.759680e+003,#NaN
2.762573e+003,#NaN
2.765466e+003,#NaN
2.768358e+003,#NaN
2.771251e+003,#NaN
2.774144e+003,#NaN
2.777037e+003,#NaN
2.779929e+003,#NaN
2.782822e+003,#NaN
2.785715e+003,#NaN
2.788607e+003,#NaN
2.791500e+003,#NaN
2.794393e+003,#NaN
2.797286e+003,#NaN
2.800178e+003,#NaN
2.803071e+003,#NaN
2.805964e+003,#NaN
2.808857e+003,#NaN
2.811750e+003,#NaN
2.814642e+003,#NaN
2.817535e+003,#NaN
2.820428e+003,#NaN
2.823321e+003,#NaN
2.826213e+003,#NaN
2.829106e+003,#NaN
2.831999e+003,#NaN
2.834891e+003,#NaN
2.837784e+003,#NaN
2.840677e+003,#NaN
2.843570e+003,#NaN
2.846462e+003,#NaN
2.849355e+003,#NaN
2.852248e+003,#NaN
2.855141e+003,#NaN
2.858033e+003,#NaN
2.860926e+003,#NaN
2.863819e+003,#NaN
2.866712e+003,#NaN
2.869604e+003,#NaN
2.872497e+003,#NaN
2.875390e+003,#NaN
2.878283e+003,#NaN
2.881175e+003,#NaN
2.884068e+003,#NaN
2.886961e+003,#NaN
2.889854e+003,#NaN
2.892746e+003,#NaN
2.895639e+003,#NaN
2.898532e+003,#NaN
2.901425e+003,#NaN
2.904317e+003,#NaN
2.907210e+003,#NaN
2.910103e+003,#NaN
2.912996e+003,#NaN
2.915888e+003,#NaN
2.918781e+003,#NaN
2.921674e+003,#NaN
2.924567e+003,#NaN
2.927459e+003,#NaN
2.930352e+003,#NaN
2.933245e+003,#NaN
2.936137e+003,#NaN
2.939030e+003,#NaN
2.941923e+003,#NaN
2.944816e+003,#NaN
2.947708e+003,#NaN
2.950601e+003,#NaN
2.953494e+003,#NaN
2.956387e+003,#NaN
2.959280e+003,#NaN
2.962172e+003,#NaN
2.965065e+003,#NaN
2.967958e+003,#NaN
2.970851e+003,#NaN
2.973743e+003,#NaN
2.976636e+003,#NaN
2.979529e+003,#NaN
2.982422e+003,#NaN
2.985314e+003,#NaN
2.988207e+003,#NaN
2.991100e+003,#NaN
2.993992e+003,#NaN
2.996885e+003,#NaN
2.999778e+003,#NaN
3.002671e+003,#NaN
3.005563e+003,#NaN
3.008456e+003,#NaN
3.011349e+003,#NaN
3.014242e+003,#NaN
3.017135e+003,#NaN
3.020027e+003,#NaN
3.022920e+003,#NaN
3.025813e+003,#NaN
3.028706e+003,#NaN
3.031598e+003,#NaN
3.034491e+003,#NaN
3.037384e+003,#NaN
3.040276e+003,#NaN
3.043169e+003,#NaN
3.046062e+003,#NaN
3.048955e+003,#NaN
3.051847e+003,#NaN
3.054740e+003,#NaN
3.057633e+003,#NaN
3.060526e+003,#NaN
3.063418e+003,#NaN
3.066311e+003,#NaN
3.069204e+003,#NaN
3.072097e+003,#NaN
3.074990e+003,#NaN
3.077882e+003,#NaN
3.080775e+003,#NaN
3.083668e+003,#NaN
3.086560e+003,#NaN
3.089453e+003,#NaN
3.092346e+003,#NaN
3.095239e+003,#NaN
3.098131e+003,#NaN
3.101024e+003,#NaN
3.103917e+003,#NaN
3.106810e+003,#NaN
3.109702e+003,#NaN
3.112595e+003,#NaN
3.115488e+003,#NaN
3.118381e+003,#NaN
3.121273e+003,#NaN
3.124166e+003,#NaN
3.127059e+003,#NaN
3.129952e+003,#NaN
3.132844e+003,#NaN
3.135737e+003,#NaN
3.138630e+003,#NaN
3.141522e+003,#NaN
3.144415e+003,#NaN
3.147308e+003,#NaN
3.150201e+003,#NaN
3.153094e+003,#NaN
3.155986e+003,#NaN
3.158879e+003,#NaN
3.161772e+003,#NaN
3.164665e+003,#NaN
3.167557e+003,#NaN
3.170450e+003,#NaN
3.173343e+003,#NaN
3.176236e+003,#NaN
3.179128e+003,#NaN
3.182021e+003,#NaN
3.184914e+003,#NaN
3.187806e+003,#NaN
3.190699e+003,#NaN
3.193592e+003,#NaN
3.196485e+003,#NaN
3.199377e+003,#NaN
3.202270e+003,#NaN
3.205163e+003,#NaN
3.208056e+003,#NaN
3.210948e+003,#NaN
3.213841e+003,#NaN
3.216734e+003,#NaN
3.219627e+003,#NaN
3.222520e+003,#NaN
3.225412e+003,#NaN
3.228305e+003,#NaN
3.231198e+003,#NaN
3.234091e+003,#NaN
3.236983e+003,#NaN
3.239876e+003,#NaN
3.242769e+003,#NaN
3.245661e+003,#NaN
3.248554e+003,#NaN
3.251447e+003,#NaN
3.254340e+003,#NaN
3.257232e+003,#NaN
3.260125e+003,#NaN
3.263018e+003,#NaN
3.265911e+003,#NaN
3.268803e+003,#NaN
3.271696e+003,#NaN
3.274589e+003,#NaN
3.277482e+003,#NaN
3.280375e+003,#NaN
3.283267e+003,#NaN
3.286160e+003,#NaN
3.289053e+003,#NaN
3.291945e+003,#NaN
3.294838e+003,#NaN
3.297731e+003,#NaN
3.300624e+003,#NaN
3.303516e+003,#NaN
3.306409e+003,#NaN
3.309302e+003,#NaN
3.312195e+003,#NaN
3.315087e+003,#NaN
3.317980e+003,#NaN
3.320873e+003,#NaN
3.323766e+003,#NaN
3.326658e+003,#NaN
3.329551e+003,#NaN
3.332444e+003,#NaN
3.335337e+003,#NaN
3.338229e+003,#NaN
3.341122e+003,#NaN
3.344015e+003,#NaN
3.346907e+003,#NaN
3.349800e+003,#NaN
3.352693e+003,#NaN
3.355586e+003,#NaN
3.358479e+003,#NaN
3.361371e+003,#NaN
3.364264e+003,#NaN
3.367157e+003,#NaN
3.370050e+003,#NaN
3.372942e+003,#NaN
3.375835e+003,#NaN
3.378728e+003,#NaN
3.381621e+003,#NaN
3.384513e+003,#NaN
3.387406e+003,#NaN
3.390299e+003,#NaN
3.393191e+003,#NaN
3.396084e+003,#NaN
3.398977e+003,#NaN
3.401870e+003,#NaN
3.404762e+003,#NaN
3.407655e+003,#NaN
3.410548e+003,#NaN
3.413441e+003,#NaN
3.416333e+003,#NaN
3.419226e+003,#NaN
3.422119e+003,#NaN
3.425012e+003,#NaN
3.427905e+003,#NaN
3.430797e+003,#NaN
3.433690e+003,#NaN
3.436583e+003,#NaN
3.439475e+003,#NaN
3.442368e+003,#NaN
3.445261e+003,#NaN
3.448154e+003,#NaN
3.451046e+003,#NaN
3.453939e+003,#NaN
3.456832e+003,#NaN
3.459725e+003,#NaN
3.462617e+003,#NaN
3.465510e+003,#NaN
3.468403e+003,#NaN
3.471296e+003,#NaN
3.474188e+003,#NaN
3.477081e+003,#NaN
3.479974e+003,#NaN
3.482867e+003,#NaN
3.485760e+003,#NaN
3.488652e+003,#NaN
3.491545e+003,#NaN
3.494438e+003,#NaN
3.497330e+003,#NaN
3.500223e+003,#NaN
3.503116e+003,#NaN
3.506009e+003,#NaN
3.508901e+003,#NaN
3.511794e+003,#NaN
3.514687e+003,#NaN
3.517580e+003,#NaN
3.520472e+003,#NaN
3.523365e+003,#NaN
3.526258e+003,#NaN
3.529151e+003,#NaN
3.532043e+003,#NaN
3.534936e+003,#NaN
3.537829e+003,#NaN
3.540722e+003,#NaN
3.543614e+003,#NaN
3.546507e+003,#NaN
3.549400e+003,#NaN
3.552292e+003,#NaN
3.555185e+003,#NaN
3.558078e+003,#NaN
3.560971e+003,#NaN
3.563864e+003,#NaN
3.566756e+003,#NaN
3.569649e+003,#NaN
3.572542e+003,#NaN
3.575435e+003,#NaN
3.578327e+003,#NaN
3.581220e+003,#NaN
3.584113e+003,#NaN
3.587006e+003,#NaN
3.589898e+003,#NaN
3.592791e+003,#NaN
3.595684e+003,#NaN
3.598576e+003,#NaN
3.601469e+003,#NaN
3.604362e+003,#NaN
3.607255e+003,#NaN
3.610147e+003,#NaN
3.613040e+003,#NaN
3.615933e+003,#NaN
3.618826e+003,#NaN
3.621719e+003,#NaN
3.624611e+003,#NaN
3.627504e+003,#NaN
3.630397e+003,#NaN
3.633290e+003,#NaN
3.636182e+003,#NaN
3.639075e+003,#NaN
3.641968e+003,#NaN
3.644860e+003,#NaN
3.647753e+003,#NaN
3.650646e+003,#NaN
3.653539e+003,#NaN
3.656431e+003,#NaN
3.659324e+003,#NaN
3.662217e+003,#NaN
3.665110e+003,#NaN
3.668002e+003,#NaN
3.670895e+003,#NaN
3.673788e+003,#NaN
3.676681e+003,#NaN
3.679573e+003,#NaN
3.682466e+003,#NaN
3.685359e+003,#NaN
3.688252e+003,#NaN
3.691145e+003,#NaN
3.694037e+003,#NaN
3.696930e+003,#NaN
3.699823e+003,#NaN
3.702715e+003,#NaN
3.705608e+003,#NaN
3.708501e+003,#NaN
3.711394e+003,#NaN
3.714286e+003,#NaN
3.717179e+003,#NaN
3.720072e+003,#NaN
3.722965e+003,#NaN
3.725857e+003,#NaN
3.728750e+003,#NaN
3.731643e+003,#NaN
3.734536e+003,#NaN
3.737428e+003,#NaN
3.740321e+003,#NaN
3.743214e+003,#NaN
3.746107e+003,#NaN
3.748999e+003,#NaN
3.751892e+003,#NaN
3.754785e+003,#NaN
3.757677e+003,#NaN
3.760570e+003,#NaN
3.763463e+003,#NaN
3.766356e+003,#NaN
3.769249e+003,#NaN
3.772141e+003,#NaN
3.775034e+003,#NaN
3.777927e+003,#NaN
3.780820e+003,#NaN
3.783712e+003,#NaN
3.786605e+003,#NaN
3.789498e+003,#NaN
3.792391e+003,#NaN
3.795283e+003,#NaN
3.798176e+003,#NaN
3.801069e+003,#NaN
3.803961e+003,#NaN
3.806854e+003,#NaN
3.809747e+003,#NaN
3.812640e+003,#NaN
3.815532e+003,#NaN
3.818425e+003,#NaN
3.821318e+003,#NaN
3.824211e+003,#NaN
3.827104e+003,#NaN
3.829996e+003,#NaN
3.832889e+003,#NaN
3.835782e+003,#NaN
3.838675e+003,#NaN
3.841567e+003,#NaN
3.844460e+003,#NaN
3.847353e+003,#NaN
3.850245e+003,#NaN
3.853138e+003,#NaN
3.856031e+003,#NaN
3.858924e+003,#NaN
3.861816e+003,#NaN
3.864709e+003,#NaN
3.867602e+003,#NaN
3.870495e+003,#NaN
3.873387e+003,#NaN
3.876280e+003,#NaN
3.879173e+003,#NaN
3.882066e+003,#NaN
3.884958e+003,#NaN
3.887851e+003,#NaN
3.890744e+003,#NaN
3.893637e+003,#NaN
3.896529e+003,#NaN
3.899422e+003,#NaN
3.902315e+003,#NaN
3.905208e+003,#NaN
3.908100e+003,#NaN
3.910993e+003,#NaN
3.913886e+003,#NaN
3.916779e+003,#NaN
3.919671e+003,#NaN
3.922564e+003,#NaN
3.925457e+003,#NaN
3.928350e+003,#NaN
3.931242e+003,#NaN
3.934135e+003,#NaN
3.937028e+003,#NaN
3.939921e+003,#NaN
3.942813e+003,#NaN
3.945706e+003,#NaN
3.948599e+003,#NaN
3.951492e+003,#NaN
3.954384e+003,#NaN
3.957277e+003,#NaN
3.960170e+003,#NaN
3.963063e+003,#NaN
3.965955e+003,#NaN
3.968848e+003,#NaN
3.971741e+003,#NaN
3.974634e+003,#NaN
3.977526e+003,#NaN
3.980419e+003,#NaN
3.983312e+003,#NaN
3.986205e+003,#NaN
3.989097e+003,#NaN
3.991990e+003,#NaN
3.994883e+003,#NaN
3.997776e+003,#NaN
4.000668e+003,0.000000e+000