File: FTIR Data (PCL)/All Data/PCL_NaOH_3_3.CSV
3.991989e+002,0.000000e+000
4.020916e+002,0.000000e+000
4.049844e+002,0.000000e+000
4.078771e+002,0.000000e+000
4.107699e+002,0.000000e+000
4.136626e+002,0.000000e+000
4.165554e+002,0.000000e+000
4.194481e+002,0.000000e+000
4.223409e+002,0.000000e+000
4.252336e+002,0.000000e+000
4.281263e+002,0.000000e+000
4.310191e+002,0.000000e+000
4.339118e+002,0.000000e+000
4.368046e+002,0.000000e+000
4.396973e+002,0.000000e+000
4.425901e+002,0.000000e+000
4.454828e+002,0.000000e+000
4.483756e+002,0.000000e+000
4.512683e+002,0.000000e+000
4.541611e+002,0.000000e+000
4.570538e+002,0.000000e+000
4.599466e+002,0.000000e+000
4.628393e+002,0.000000e+000
4.657321e+002,0.000000e+000
4.686248e+002,0.000000e+000
4.715175e+002,0.000000e+000
4.744103e+002,0.000000e+000
4.773030e+002,0.000000e+000
4.801958e+002,0.000000e+000
4.830885e+002,0.000000e+000
4.859813e+002,0.000000e+000
4.888740e+002,0.000000e+000
4.917668e+002,0.000000e+000
4.946595e+002,0.000000e+000
4.975523e+002,0.000000e+000
5.004450e+002,0.000000e+000
5.033378e+002,0.000000e+000
5.062305e+002,0.000000e+000
5.091233e+002,0.000000e+000
5.120160e+002,0.000000e+000
5.149088e+002,0.000000e+000
5.178015e+002,0.000000e+000
5.206942e+002,0.000000e+000
5.235870e+002,0.000000e+000
5.264797e+002,0.000000e+000
5.293725e+002,0.000000e+000
5.322652e+002,0.000000e+000
5.351580e+002,0.000000e+000
5.380507e+002,0.000000e+000
5.409435e+002,0.000000e+000
5.438362e+002,0.000000e+000
5.467289e+002,0.000000e+000
5.496217e+002,8.504383e+001
5.525145e+002,8.561755e+001
5.554072e+002,8.422191e+001
5.582999e+002,8.423950e+001
5.611927e+002,8.600536e+001
5.640854e+002,8.260491e+001
5.669782e+002,8.294553e+001
5.698709e+002,8.203658e+001
5.727637e+002,8.125886e+001
5.756564e+002,7.735874e+001
5.785492e+002,7.957466e+001
5.814419e+002,7.749034e+001
5.843347e+002,7.657925e+001
5.872274e+002,7.939067e+001
5.901202e+002,8.024321e+001
5.930129e+002,8.253555e+001
5.959056e+002,8.432142e+001
5.987984e+002,8.354953e+001
6.016912e+002,8.401365e+001
6.045839e+002,8.507980e+001
6.074766e+002,8.527269e+001
6.103694e+002,8.513282e+001
6.132621e+002,8.575719e+001
6.161548e+002,8.632157e+001
6.190476e+002,8.627530e+001
6.219404e+002,8.722331e+001
6.248331e+002,8.611459e+001
6.277258e+002,8.639517e+001
6.306186e+002,8.596027e+001
6.335114e+002,8.626935e+001
6.364041e+002,8.609610e+001
6.392968e+002,8.596284e+001
6.421896e+002,8.607739e+001
6.450823e+002,8.593074e+001
6.479751e+002,8.579897e+001
6.508679e+002,8.611363e+001
6.537606e+002,8.610702e+001
6.566533e+002,8.631062e+001
6.595461e+002,8.612604e+001
6.624388e+002,8.592016e+001
6.653315e+002,8.650224e+001
6.682243e+002,8.288158e+001
6.711171e+002,8.591961e+001
6.740098e+002,8.592597e+001
6.769025e+002,8.526765e+001
6.797953e+002,8.511685e+001
6.826880e+002,8.445591e+001
6.855808e+002,8.420911e+001
6.884735e+002,8.350542e+001
6.913663e+002,8.269825e+001
6.942590e+002,8.168810e+001
6.971518e+002,8.052087e+001
7.000445e+002,7.884161e+001
7.029373e+002,7.693097e+001
7.058300e+002,7.446384e+001
7.087228e+002,7.298496e+001
7.116155e+002,7.362370e+001
7.145082e+002,7.541664e+001
7.174010e+002,7.620901e+001
7.202938e+002,7.493889e+001
7.231865e+002,7.009344e+001
7.260792e+002,6.223300e+001
7.289720e+002,5.978658e+001
7.318647e+002,5.709401e+001
7.347575e+002,6.390455e+001
7.376502e+002,7.168194e+001
7.405430e+002,7.744025e+001
7.434357e+002,8.153015e+001
7.463285e+002,8.395530e+001
7.492212e+002,8.544402e+001
7.521140e+002,8.655643e+001
7.550067e+002,8.739970e+001
7.578995e+002,8.778768e+001
7.607922e+002,8.801064e+001
7.636849e+002,8.757585e+001
7.665777e+002,8.665957e+001
7.694705e+002,8.584193e+001
7.723632e+002,8.520794e+001
7.752559e+002,8.565259e+001
7.781487e+002,8.649805e+001
7.810414e+002,8.721082e+001
7.839341e+002,8.766184e+001
7.868269e+002,8.790073e+001
7.897197e+002,8.800903e+001
7.926124e+002,8.806522e+001
7.955051e+002,8.803689e+001
7.983979e+002,8.798837e+001
8.012906e+002,8.783154e+001
8.041834e+002,8.793616e+001
8.070761e+002,8.778210e+001
8.099689e+002,8.780022e+001
8.128616e+002,8.794212e+001
8.157544e+002,8.786007e+001
8.186472e+002,8.790579e+001
8.215399e+002,8.768204e+001
8.244326e+002,8.742369e+001
8.273254e+002,8.713450e+001
8.302181e+002,8.641901e+001
8.331108e+002,8.508992e+001
8.360036e+002,8.275693e+001
8.388964e+002,7.934766e+001
8.417891e+002,8.008568e+001
8.446818e+002,8.427695e+001
8.475746e+002,8.565755e+001
8.504673e+002,8.599076e+001
8.533601e+002,8.595395e+001
8.562528e+002,8.590028e+001
8.591456e+002,8.584675e+001
8.620383e+002,8.565648e+001
8.649311e+002,8.558565e+001
8.678238e+002,8.536045e+001
8.707166e+002,8.534016e+001
8.736093e+002,8.512844e+001
8.765021e+002,8.512583e+001
8.793948e+002,8.504983e+001
8.822875e+002,8.491098e+001
8.851803e+002,8.467952e+001
8.880731e+002,8.459011e+001
8.909658e+002,8.446166e+001
8.938585e+002,8.430549e+001
8.967513e+002,8.419109e+001
8.996440e+002,8.389948e+001
9.025368e+002,8.363136e+001
9.054295e+002,8.313934e+001
9.083223e+002,8.263652e+001
9.112150e+002,8.195496e+001
9.141078e+002,8.122564e+001
9.170005e+002,8.052306e+001
9.198932e+002,7.942980e+001
9.227860e+002,7.800539e+001
9.256788e+002,7.584661e+001
9.285715e+002,7.276502e+001
9.314642e+002,6.906026e+001
9.343570e+002,6.780160e+001
9.372498e+002,7.116285e+001
9.401425e+002,7.423089e+001
9.430352e+002,7.454021e+001
9.459280e+002,7.321719e+001
9.488207e+002,7.066411e+001
9.517134e+002,6.704171e+001
9.546062e+002,6.275697e+001
9.574990e+002,5.802419e+001
9.603917e+002,5.507882e+001
9.632844e+002,5.864385e+001
9.661772e+002,6.632392e+001
9.690699e+002,7.096131e+001
9.719627e+002,7.339150e+001
9.748554e+002,7.514204e+001
9.777482e+002,7.684652e+001
9.806409e+002,7.784106e+001
9.835337e+002,7.816875e+001
9.864265e+002,7.796480e+001
9.893192e+002,7.778603e+001
9.922119e+002,7.760959e+001
9.951047e+002,7.755932e+001
9.979974e+002,7.749654e+001
1.000890e+003,7.728771e+001
1.003783e+003,7.691135e+001
1.006676e+003,7.641208e+001
1.009568e+003,7.576127e+001
1.012461e+003,7.502843e+001
1.015354e+003,7.413628e+001
1.018247e+003,7.310368e+001
1.021139e+003,7.191038e+001
1.024032e+003,7.025903e+001
1.026925e+003,6.828510e+001
1.029818e+003,6.589599e+001
1.032710e+003,6.318386e+001
1.035603e+003,5.963798e+001
1.038496e+003,5.546498e+001
1.041389e+003,5.099757e+001
1.044281e+003,4.757931e+001
1.047174e+003,4.868422e+001
1.050067e+003,5.613650e+001
1.052960e+003,6.380097e+001
1.055852e+003,6.840170e+001
1.058745e+003,6.955587e+001
1.061638e+003,6.754407e+001
1.064531e+003,6.486269e+001
1.067423e+003,6.612312e+001
1.070316e+003,7.049496e+001
1.073209e+003,7.270473e+001
1.076102e+003,7.283582e+001
1.078994e+003,7.156091e+001
1.081887e+003,6.937484e+001
1.084780e+003,6.688442e+001
1.087673e+003,6.435677e+001
1.090565e+003,6.238567e+001
1.093458e+003,6.103826e+001
1.096351e+003,6.040598e+001
1.099244e+003,5.970660e+001
1.102136e+003,5.829947e+001
1.105029e+003,5.595156e+001
1.107922e+003,5.468466e+001
1.110815e+003,5.858081e+001
1.113707e+003,6.504690e+001
1.116600e+003,6.999918e+001
1.119493e+003,7.214126e+001
1.122385e+003,7.177374e+001
1.125278e+003,7.001968e+001
1.128171e+003,6.754622e+001
1.131064e+003,6.461914e+001
1.133957e+003,6.115051e+001
1.136849e+003,5.720514e+001
1.139742e+003,5.262056e+001
1.142635e+003,4.763209e+001
1.145527e+003,4.223616e+001
1.148420e+003,3.700460e+001
1.151313e+003,3.235679e+001
1.154206e+003,2.888197e+001
1.157099e+003,2.654269e+001
1.159991e+003,2.544988e+001
1.162884e+003,2.531898e+001
1.165777e+003,2.577637e+001
1.168669e+003,2.653560e+001
1.171562e+003,2.747069e+001
1.174455e+003,2.852350e+001
1.177348e+003,2.967553e+001
1.180240e+003,3.116471e+001
1.183133e+003,3.239109e+001
1.186026e+003,3.345528e+001
1.188919e+003,3.662565e+001
1.191811e+003,4.243372e+001
1.194704e+003,5.022145e+001
1.197597e+003,5.871921e+001
1.200490e+003,6.544933e+001
1.203382e+003,6.905198e+001
1.206275e+003,7.087151e+001
1.209168e+003,7.177911e+001
1.212061e+003,7.208447e+001
1.214953e+003,7.183673e+001
1.217846e+003,7.107712e+001
1.220739e+003,6.973831e+001
1.223632e+003,6.755722e+001
1.226524e+003,6.390287e+001
1.229417e+003,5.809415e+001
1.232310e+003,5.033254e+001
1.235203e+003,4.276439e+001
1.238095e+003,3.966238e+001
1.240988e+003,4.203432e+001
1.243881e+003,4.697932e+001
1.246774e+003,5.637246e+001
1.249666e+003,6.684896e+001
1.252559e+003,7.281416e+001
1.255452e+003,7.553461e+001
1.258345e+003,7.703326e+001
1.261237e+003,7.815281e+001
1.264130e+003,7.895235e+001
1.267023e+003,7.937053e+001
1.269916e+003,7.918446e+001
1.272808e+003,7.863077e+001
1.275701e+003,7.777090e+001
1.278594e+003,7.675559e+001
1.281487e+003,7.547279e+001
1.284379e+003,7.353136e+001
1.287272e+003,6.979226e+001
1.290165e+003,6.227185e+001
1.293057e+003,5.671941e+001
1.295950e+003,6.146324e+001
1.298843e+003,6.921403e+001
1.301736e+003,7.489658e+001
1.304629e+003,7.777661e+001
1.307521e+003,8.027634e+001
1.310414e+003,8.236043e+001
1.313307e+003,8.364590e+001
1.316200e+003,8.448989e+001
1.319092e+003,8.483857e+001
1.321985e+003,8.484303e+001
1.324878e+003,8.493660e+001
1.327771e+003,8.563206e+001
1.330663e+003,8.654659e+001
1.333556e+003,8.710660e+001
1.336449e+003,8.705740e+001
1.339342e+003,8.647473e+001
1.342234e+003,8.502866e+001
1.345127e+003,8.298843e+001
1.348020e+003,8.019007e+001
1.350912e+003,7.668662e+001
1.353805e+003,7.354286e+001
1.356698e+003,7.084318e+001
1.359591e+003,6.677769e+001
1.362484e+003,6.249509e+001
1.365376e+003,6.064432e+001
1.368269e+003,6.333864e+001
1.371162e+003,6.807558e+001
1.374054e+003,7.062321e+001
1.376947e+003,7.446324e+001
1.379840e+003,8.034050e+001
1.382733e+003,8.393088e+001
1.385625e+003,8.465206e+001
1.388518e+003,8.328696e+001
1.391411e+003,8.077831e+001
1.394304e+003,7.786409e+001
1.397196e+003,7.615993e+001
1.400089e+003,7.909398e+001
1.402982e+003,8.310522e+001
1.405875e+003,8.550903e+001
1.408767e+003,8.474104e+001
1.411660e+003,8.082904e+001
1.414553e+003,7.651366e+001
1.417446e+003,7.513674e+001
1.420338e+003,7.553816e+001
1.423231e+003,8.110452e+001
1.426124e+003,8.594911e+001
1.429017e+003,8.797515e+001
1.431909e+003,8.812086e+001
1.434802e+003,8.716086e+001
1.437695e+003,8.706047e+001
1.440588e+003,8.790434e+001
1.443480e+003,8.848936e+001
1.446373e+003,8.825227e+001
1.449266e+003,8.762680e+001
1.452159e+003,8.663932e+001
1.455051e+003,8.524355e+001
1.457944e+003,8.235413e+001
1.460837e+003,8.153962e+001
1.463730e+003,8.006969e+001
1.466622e+003,8.022203e+001
1.469515e+003,7.638457e+001
1.472408e+003,7.923888e+001
1.475301e+003,8.326173e+001
1.478193e+003,8.415157e+001
1.481086e+003,8.921880e+001
1.483979e+003,9.293887e+001
1.486872e+003,9.468021e+001
1.489764e+003,9.560621e+001
1.492657e+003,9.599882e+001
1.495550e+003,9.630390e+001
1.498443e+003,9.646449e+001
1.501335e+003,9.652615e+001
1.504228e+003,9.664374e+001
1.507121e+003,9.709766e+001
1.510014e+003,9.685785e+001
1.512906e+003,9.679170e+001
1.515799e+003,9.697597e+001
1.518692e+003,9.698340e+001
1.521584e+003,9.721889e+001
1.524477e+003,9.708340e+001
1.527370e+003,9.702089e+001
1.530263e+003,9.695990e+001
1.533156e+003,9.698719e+001
1.536048e+003,9.692780e+001
1.538941e+003,9.694959e+001
1.541834e+003,9.709901e+001
1.544726e+003,9.690360e+001
1.547619e+003,9.669675e+001
1.550512e+003,9.668462e+001
1.553405e+003,9.650889e+001
1.556297e+003,9.633866e+001
1.559190e+003,9.683877e+001
1.562083e+003,9.624020e+001
1.564976e+003,9.632840e+001
1.567869e+003,9.633403e+001
1.570761e+003,9.642715e+001
1.573654e+003,9.634093e+001
1.576547e+003,9.656821e+001
1.579439e+003,9.626994e+001
1.582332e+003,9.624287e+001
1.585225e+003,9.618910e+001
1.588118e+003,9.615337e+001
1.591010e+003,9.600984e+001
1.593903e+003,9.592287e+001
1.596796e+003,9.580846e+001
1.599689e+003,9.570584e+001
1.602581e+003,9.567616e+001
1.605474e+003,9.556709e+001
1.608367e+003,9.543761e+001
1.611260e+003,9.520824e+001
1.614152e+003,9.510244e+001
1.617045e+003,9.520201e+001
1.619938e+003,9.476434e+001
1.622831e+003,9.474002e+001
1.625723e+003,9.439841e+001
1.628616e+003,9.419297e+001
1.631509e+003,9.397356e+001
1.634402e+003,9.384718e+001
1.637294e+003,9.379952e+001
1.640187e+003,9.349402e+001
1.643080e+003,9.341988e+001
1.645973e+003,9.335121e+001
1.648865e+003,9.309585e+001
1.651758e+003,9.283056e+001
1.654651e+003,9.255130e+001
1.657544e+003,9.189095e+001
1.660436e+003,9.135035e+001
1.663329e+003,9.080732e+001
1.666222e+003,8.983389e+001
1.669115e+003,8.905289e+001
1.672007e+003,8.768089e+001
1.674900e+003,8.618190e+001
1.677793e+003,8.407375e+001
1.680686e+003,8.153568e+001
1.683578e+003,7.922454e+001
1.686471e+003,7.694934e+001
1.689364e+003,7.508263e+001
1.692257e+003,7.332514e+001
1.695149e+003,7.148038e+001
1.698042e+003,6.869010e+001
1.700935e+003,6.518523e+001
1.703828e+003,6.186929e+001
1.706720e+003,5.623926e+001
1.709613e+003,4.943498e+001
1.712506e+003,4.023400e+001
1.715399e+003,2.876495e+001
1.718291e+003,1.827820e+001
1.721184e+003,1.601715e+001
1.724077e+003,2.148380e+001
1.726969e+003,3.103971e+001
1.729862e+003,3.856207e+001
1.732755e+003,4.376146e+001
1.735648e+003,5.148943e+001
1.738541e+003,5.823095e+001
1.741433e+003,6.735020e+001
1.744326e+003,7.610828e+001
1.747219e+003,8.303069e+001
1.750111e+003,8.771324e+001
1.753004e+003,9.068066e+001
1.755897e+003,9.217188e+001
1.758790e+003,9.315446e+001
1.761682e+003,9.391858e+001
1.764575e+003,9.418589e+001
1.767468e+003,9.458181e+001
1.770361e+003,9.490947e+001
1.773253e+003,9.541837e+001
1.776146e+003,9.562055e+001
1.779039e+003,9.592786e+001
1.781932e+003,9.617541e+001
1.784824e+003,9.647880e+001
1.787717e+003,9.672919e+001
1.790610e+003,9.697403e+001
1.793503e+003,9.726774e+001
1.796395e+003,9.733465e+001
1.799288e+003,9.757760e+001
1.802181e+003,9.767506e+001
1.805074e+003,9.779846e+001
1.807966e+003,9.787645e+001
1.810859e+003,9.804239e+001
1.813752e+003,9.809991e+001
1.816645e+003,9.834406e+001
1.819537e+003,9.825532e+001
1.822430e+003,9.829441e+001
1.825323e+003,9.841389e+001
1.828216e+003,9.837196e+001
1.831108e+003,9.843289e+001
1.834001e+003,9.840784e+001
1.836894e+003,9.846100e+001
1.839787e+003,9.839639e+001
1.842679e+003,9.852706e+001
1.845572e+003,9.859572e+001
1.848465e+003,9.848582e+001
1.851358e+003,9.858920e+001
1.854250e+003,9.872419e+001
1.857143e+003,9.872616e+001
1.860036e+003,9.879671e+001
1.862929e+003,9.888450e+001
1.865821e+003,9.870335e+001
1.868714e+003,9.869469e+001
1.871607e+003,9.875578e+001
1.874500e+003,9.878112e+001
1.877392e+003,9.878468e+001
1.880285e+003,9.876459e+001
1.883178e+003,9.876612e+001
1.886071e+003,9.868133e+001
1.888963e+003,9.885297e+001
1.891856e+003,9.879509e+001
1.894749e+003,9.873089e+001
1.897642e+003,9.874667e+001
1.900534e+003,9.867962e+001
1.903427e+003,9.878526e+001
1.906320e+003,9.879581e+001
1.909213e+003,9.870564e+001
1.912105e+003,9.863596e+001
1.914998e+003,9.875980e+001
1.917891e+003,9.854580e+001
1.920784e+003,9.852246e+001
1.923676e+003,9.887826e+001
1.926569e+003,9.871944e+001
1.929462e+003,9.866212e+001
1.932354e+003,9.877402e+001
1.935247e+003,9.881856e+001
1.938140e+003,9.893830e+001
1.941033e+003,9.884914e+001
1.943926e+003,9.865964e+001
1.946818e+003,9.880592e+001
1.949711e+003,9.890551e+001
1.952604e+003,9.867423e+001
1.955496e+003,9.901183e+001
1.958389e+003,9.888855e+001
1.961282e+003,9.893870e+001
1.964175e+003,9.885468e+001
1.967068e+003,9.899493e+001
1.969960e+003,9.909430e+001
1.972853e+003,9.883907e+001
1.975746e+003,9.882861e+001
1.978638e+003,9.824870e+001
1.981531e+003,9.853342e+001
1.984424e+003,9.870875e+001
1.987317e+003,9.867931e+001
1.990209e+003,9.870422e+001
1.993102e+003,9.870115e+001
1.995995e+003,9.891721e+001
1.998888e+003,9.874149e+001
2.001780e+003,9.886366e+001
2.004673e+003,9.889214e+001
2.007566e+003,9.857507e+001
2.010459e+003,9.885064e+001
2.013351e+003,9.854539e+001
2.016244e+003,9.874994e+001
2.019137e+003,9.883441e+001
2.022030e+003,9.845781e+001
2.024922e+003,9.895075e+001
2.027815e+003,9.875491e+001
2.030708e+003,9.880610e+001
2.033601e+003,9.862917e+001
2.036493e+003,9.872063e+001
2.039386e+003,9.849673e+001
2.042279e+003,9.858009e+001
2.045172e+003,9.875032e+001
2.048064e+003,9.856701e+001
2.050957e+003,9.840027e+001
2.053850e+003,9.870256e+001
2.056743e+003,9.856686e+001
2.059635e+003,9.866078e+001
2.062528e+003,9.864446e+001
2.065421e+003,9.859769e+001
2.068314e+003,9.854563e+001
2.071206e+003,9.854933e+001
2.074099e+003,9.842075e+001
2.076992e+003,9.850916e+001
2.079885e+003,9.835802e+001
2.082777e+003,9.838494e+001
2.085670e+003,9.843341e+001
2.088563e+003,9.849784e+001
2.091456e+003,9.845692e+001
2.094348e+003,9.850626e+001
2.097241e+003,9.822613e+001
2.100134e+003,9.826881e+001
2.103027e+003,9.850311e+001
2.105919e+003,9.843976e+001
2.108812e+003,9.848695e+001
2.111705e+003,9.847566e+001
2.114598e+003,9.850329e+001
2.117490e+003,9.870630e+001
2.120383e+003,9.887637e+001
2.123276e+003,9.887696e+001
2.126168e+003,9.888095e+001
2.129061e+003,9.905396e+001
2.131954e+003,9.925156e+001
2.134847e+003,9.900754e+001
2.137740e+003,9.894178e+001
2.140632e+003,9.901120e+001
2.143525e+003,9.897683e+001
2.146418e+003,9.920219e+001
2.149311e+003,9.902596e+001
2.152203e+003,9.906281e+001
2.155096e+003,9.903876e+001
2.157989e+003,9.927254e+001
2.160882e+003,9.811437e+001
2.163774e+003,9.846793e+001
2.166667e+003,9.853129e+001
2.169560e+003,9.873031e+001
2.172452e+003,9.891224e+001
2.175345e+003,9.894920e+001
2.178238e+003,9.889950e+001
2.181131e+003,9.876643e+001
2.184023e+003,9.872640e+001
2.186916e+003,9.857076e+001
2.189809e+003,9.873550e+001
2.192702e+003,9.882702e+001
2.195594e+003,9.887839e+001
2.198487e+003,9.871754e+001
2.201380e+003,9.876985e+001
2.204273e+003,9.897173e+001
2.207166e+003,9.887501e+001
2.210058e+003,9.887322e+001
2.212951e+003,9.877979e+001
2.215844e+003,9.880604e+001
2.218736e+003,9.890476e+001
2.221629e+003,9.890476e+001
2.224522e+003,9.881769e+001
2.227415e+003,9.885672e+001
2.230307e+003,9.890252e+001
2.233200e+003,9.883646e+001
2.236093e+003,9.869289e+001
2.238986e+003,9.876712e+001
2.241878e+003,9.887756e+001
2.244771e+003,9.876931e+001
2.247664e+003,9.901871e+001
2.250557e+003,9.880870e+001
2.253449e+003,9.873751e+001
2.256342e+003,9.892198e+001
2.259235e+003,9.879404e+001
2.262128e+003,9.865627e+001
2.265020e+003,9.873775e+001
2.267913e+003,9.863663e+001
2.270806e+003,9.860626e+001
2.273699e+003,9.859422e+001
2.276591e+003,9.862044e+001
2.279484e+003,9.852355e+001
2.282377e+003,9.841679e+001
2.285270e+003,9.840575e+001
2.288162e+003,9.846505e+001
2.291055e+003,9.833144e+001
2.293948e+003,9.828999e+001
2.296841e+003,9.813873e+001
2.299733e+003,9.807043e+001
2.302626e+003,9.789114e+001
2.305519e+003,9.769862e+001
2.308412e+003,9.731286e+001
2.311304e+003,9.714700e+001
2.314197e+003,9.697620e+001
2.317090e+003,9.653041e+001
2.319983e+003,9.612865e+001
2.322875e+003,9.557925e+001
2.325768e+003,9.567652e+001
2.328661e+003,9.548212e+001
2.331553e+003,9.532325e+001
2.334446e+003,9.517390e+001
2.337339e+003,9.499191e+001
2.340232e+003,9.478077e+001
2.343125e+003,9.477701e+001
2.346017e+003,9.534441e+001
2.348910e+003,9.646727e+001
2.351803e+003,9.523908e+001
2.354696e+003,9.438148e+001
2.357588e+003,9.368850e+001
2.360481e+003,9.380108e+001
2.363374e+003,9.407985e+001
2.366267e+003,9.481559e+001
2.369159e+003,9.498976e+001
2.372052e+003,9.609578e+001
2.374945e+003,9.692010e+001
2.377837e+003,9.762533e+001
2.380730e+003,9.808847e+001
2.383623e+003,9.863769e+001
2.386516e+003,9.891183e+001
2.389408e+003,9.905368e+001
2.392301e+003,9.890820e+001
2.395194e+003,9.894287e+001
2.398087e+003,9.885880e+001
2.400979e+003,9.893631e+001
2.403872e+003,9.894895e+001
2.406765e+003,9.887242e+001
2.409658e+003,9.877615e+001
2.412551e+003,9.877541e+001
2.415443e+003,9.879090e+001
2.418336e+003,9.876877e+001
2.421229e+003,9.877837e+001
2.424121e+003,9.887728e+001
2.427014e+003,9.891386e+001
2.429907e+003,9.903517e+001
2.432800e+003,9.887680e+001
2.435692e+003,9.889555e+001
2.438585e+003,9.888620e+001
2.441478e+003,9.891328e+001
2.444371e+003,9.885781e+001
2.447263e+003,9.890493e+001
2.450156e+003,9.896684e+001
2.453049e+003,9.892837e+001
2.455942e+003,9.892091e+001
2.458834e+003,9.896570e+001
2.461727e+003,9.894140e+001
2.464620e+003,9.893690e+001
2.467513e+003,9.885091e+001
2.470405e+003,9.884960e+001
2.473298e+003,9.896838e+001
2.476191e+003,9.889319e+001
2.479084e+003,9.893511e+001
2.481976e+003,9.895422e+001
2.484869e+003,9.888085e+001
2.487762e+003,9.885355e+001
2.490655e+003,9.886439e+001
2.493547e+003,9.894092e+001
2.496440e+003,9.898766e+001
2.499333e+003,9.896124e+001
2.502226e+003,9.888893e+001
2.505118e+003,9.897684e+001
2.508011e+003,9.897438e+001
2.510904e+003,9.901234e+001
2.513797e+003,9.889860e+001
2.516689e+003,9.892477e+001
2.519582e+003,9.893049e+001
2.522475e+003,9.879828e+001
2.525368e+003,9.883129e+001
2.528260e+003,9.883564e+001
2.531153e+003,9.871566e+001
2.534046e+003,9.876806e+001
2.536938e+003,9.875343e+001
2.539831e+003,9.870901e+001
2.542724e+003,9.881013e+001
2.545617e+003,9.872158e+001
2.548510e+003,9.882865e+001
2.551402e+003,9.890372e+001
2.554295e+003,9.882697e+001
2.557188e+003,9.887498e+001
2.560081e+003,9.877355e+001
2.562973e+003,9.882106e+001
2.565866e+003,9.870316e+001
2.568759e+003,9.876283e+001
2.571652e+003,9.870555e+001
2.574544e+003,9.882214e+001
2.577437e+003,9.865468e+001
2.580330e+003,9.868343e+001
2.583222e+003,9.879578e+001
2.586115e+003,9.875264e+001
2.589008e+003,9.872817e+001
2.591901e+003,9.869208e+001
2.594793e+003,9.873683e+001
2.597686e+003,9.867770e+001
2.600579e+003,9.874201e+001
2.603472e+003,9.869960e+001
2.606365e+003,9.864879e+001
2.609257e+003,9.869736e+001
2.612150e+003,9.866023e+001
2.615043e+003,9.864261e+001
2.617936e+003,9.865281e+001
2.620828e+003,9.856720e+001
2.623721e+003,9.867691e+001
2.626614e+003,9.855933e+001
2.629506e+003,9.862181e+001
2.632399e+003,9.860474e+001
2.635292e+003,9.853391e+001
2.638185e+003,9.849651e+001
2.641077e+003,9.848864e+001
2.643970e+003,9.840882e+001
2.646863e+003,9.845470e+001
2.649756e+003,9.841321e+001
2.652648e+003,9.848318e+001
2.655541e+003,9.845345e+001
2.658434e+003,9.843705e+001
2.661327e+003,9.850430e+001
2.664219e+003,9.854120e+001
2.667112e+003,9.849348e+001
2.670005e+003,9.852438e+001
2.672898e+003,9.851874e+001
2.675790e+003,9.847871e+001
2.678683e+003,9.845325e+001
2.681576e+003,9.848442e+001
2.684469e+003,9.847580e+001
2.687361e+003,9.848340e+001
2.690254e+003,9.841215e+001
2.693147e+003,9.848956e+001
2.696040e+003,9.845677e+001
2.698932e+003,9.837153e+001
2.701825e+003,9.844992e+001
2.704718e+003,9.843452e+001
2.707611e+003,9.831577e+001
2.710503e+003,9.838476e+001
2.713396e+003,9.835008e+001
2.716289e+003,9.834218e+001
2.719182e+003,9.838863e+001
2.722074e+003,9.838836e+001
2.724967e+003,9.836412e+001
2.727860e+003,9.836326e+001
2.730753e+003,9.833116e+001
2.733645e+003,9.832056e+001
2.736538e+003,9.828471e+001
2.739431e+003,9.834675e+001
2.742323e+003,9.835088e+001
2.745216e+003,9.828136e+001
2.748109e+003,9.812930e+001
2.751002e+003,9.822640e+001
2.753895e+003,9.815387e+001
2.756787e+003,9.814741e+001
2.759680e+003,9.816073e+001
2.762573e+003,9.815798e+001
2.765466e+003,9.806485e+001
2.768358e+003,9.803966e+001
2.771251e+003,9.803564e+001
2.774144e+003,9.794862e+001
2.777037e+003,9.799781e+001
2.779929e+003,9.800744e+001
2.782822e+003,9.788913e+001
2.785715e+003,9.789336e+001
2.788607e+003,9.787701e+001
2.791500e+003,9.780286e+001
2.794393e+003,9.777924e+001
2.797286e+003,9.771770e+001
2.800178e+003,9.759469e+001
2.803071e+003,9.754131e+001
2.805964e+003,9.746125e+001
2.808857e+003,9.733018e+001
2.811750e+003,9.718207e+001
2.814642e+003,9.702017e+001
2.817535e+003,9.675805e+001
2.820428e+003,9.655063e+001
2.823321e+003,9.632889e+001
2.826213e+003,9.610144e+001
2.829106e+003,9.594958e+001
2.831999e+003,9.567611e+001
2.834891e+003,9.531979e+001
2.837784e+003,9.480325e+001
2.840677e+003,9.404491e+001
2.843570e+003,9.309409e+001
2.846462e+003,9.176760e+001
2.849355e+003,8.987978e+001
2.852248e+003,8.791753e+001
2.855141e+003,8.572689e+001
2.858033e+003,8.342605e+001
2.860926e+003,8.142309e+001
2.863819e+003,8.002909e+001
2.866712e+003,8.026593e+001
2.869604e+003,8.167590e+001
2.872497e+003,8.397181e+001
2.875390e+003,8.628082e+001
2.878283e+003,8.773161e+001
2.881175e+003,8.845046e+001
2.884068e+003,8.858450e+001
2.886961e+003,8.789510e+001
2.889854e+003,8.643655e+001
2.892746e+003,8.478979e+001
2.895639e+003,8.425106e+001
2.898532e+003,8.494102e+001
2.901425e+003,8.498963e+001
2.904317e+003,8.431953e+001
2.907210e+003,8.332511e+001
2.910103e+003,8.246101e+001
2.912996e+003,8.161378e+001
2.915888e+003,8.066955e+001
2.918781e+003,7.923857e+001
2.921674e+003,7.784134e+001
2.924567e+003,7.663593e+001
2.927459e+003,7.575312e+001
2.930352e+003,7.479654e+001
2.933245e+003,7.352392e+001
2.936137e+003,7.251218e+001
2.939030e+003,7.199493e+001
2.941923e+003,7.159720e+001
2.944816e+003,7.152120e+001
2.947708e+003,7.234810e+001
2.950601e+003,7.404124e+001
2.953494e+003,7.543859e+001
2.956387e+003,7.697076e+001
2.959280e+003,7.922218e+001
2.962172e+003,8.187292e+001
2.965065e+003,8.416523e+001
2.967958e+003,8.619582e+001
2.970851e+003,8.829195e+001
2.973743e+003,9.029553e+001
2.976636e+003,9.180264e+001
2.979529e+003,9.308954e+001
2.982422e+003,9.410571e+001
2.985314e+003,9.489301e+001
2.988207e+003,9.557375e+001
2.991100e+003,9.602313e+001
2.993992e+003,9.658321e+001
2.996885e+003,9.692638e+001
2.999778e+003,9.713623e+001
3.002671e+003,9.742394e+001
3.005563e+003,9.752715e+001
3.008456e+003,9.780622e+001
3.011349e+003,9.791093e+001
3.014242e+003,9.797095e+001
3.017135e+003,9.796142e+001
3.020027e+003,9.807809e+001
3.022920e+003,9.816441e+001
3.025813e+003,9.814607e+001
3.028706e+003,9.821669e+001
3.031598e+003,9.820528e+001
3.034491e+003,9.831905e+001
3.037384e+003,9.834171e+001
3.040276e+003,9.836348e+001
3.043169e+003,9.822710e+001
3.046062e+003,9.834716e+001
3.048955e+003,9.843185e+001
3.051847e+003,9.838403e+001
3.054740e+003,9.832108e+001
3.057633e+003,9.842375e+001
3.060526e+003,9.841241e+001
3.063418e+003,9.835389e+001
3.066311e+003,9.837545e+001
3.069204e+003,9.841560e+001
3.072097e+003,9.845884e+001
3.074990e+003,9.850738e+001
3.077882e+003,9.843170e+001
3.080775e+003,9.847773e+001
3.083668e+003,9.851395e+001
3.086560e+003,9.848324e+001
3.089453e+003,9.852222e+001
3.092346e+003,9.855240e+001
3.095239e+003,9.853049e+001
3.098131e+003,9.852122e+001
3.101024e+003,9.851043e+001
3.103917e+003,9.853930e+001
3.106810e+003,9.845200e+001
3.109702e+003,9.843323e+001
3.112595e+003,9.852502e+001
3.115488e+003,9.854939e+001
3.118381e+003,9.856763e+001
3.121273e+003,9.844751e+001
3.124166e+003,9.852374e+001
3.127059e+003,9.850871e+001
3.129952e+003,9.849255e+001
3.132844e+003,9.854464e+001
3.135737e+003,9.850113e+001
3.138630e+003,9.855917e+001
3.141522e+003,9.850802e+001
3.144415e+003,9.858862e+001
3.147308e+003,9.860750e+001
3.150201e+003,9.857739e+001
3.153094e+003,9.844387e+001
3.155986e+003,9.857106e+001
3.158879e+003,9.855241e+001
3.161772e+003,9.860760e+001
3.164665e+003,9.860303e+001
3.167557e+003,9.862562e+001
3.170450e+003,9.858970e+001
3.173343e+003,9.848169e+001
3.176236e+003,9.847847e+001
3.179128e+003,9.858718e+001
3.182021e+003,9.861795e+001
3.184914e+003,9.852193e+001
3.187806e+003,9.865630e+001
3.190699e+003,9.858077e+001
3.193592e+003,9.849873e+001
3.196485e+003,9.853073e+001
3.199377e+003,9.850716e+001
3.202270e+003,9.859841e+001
3.205163e+003,9.838351e+001
3.208056e+003,9.851723e+001
3.210948e+003,9.860240e+001
3.213841e+003,9.862126e+001
3.216734e+003,9.858939e+001
3.219627e+003,9.852966e+001
3.222520e+003,9.847839e+001
3.225412e+003,9.858121e+001
3.228305e+003,9.860947e+001
3.231198e+003,9.850525e+001
3.234091e+003,9.859770e+001
3.236983e+003,9.854786e+001
3.239876e+003,9.848626e+001
3.242769e+003,9.863245e+001
3.245661e+003,9.852800e+001
3.248554e+003,9.856061e+001
3.251447e+003,9.845554e+001
3.254340e+003,9.841698e+001
3.257232e+003,9.846582e+001
3.260125e+003,9.854575e+001
3.263018e+003,9.851882e+001
3.265911e+003,9.848961e+001
3.268803e+003,9.858470e+001
3.271696e+003,9.846983e+001
3.274589e+003,9.849599e+001
3.277482e+003,9.845882e+001
3.280375e+003,9.850145e+001
3.283267e+003,9.847816e+001
3.286160e+003,9.838961e+001
3.289053e+003,9.840253e+001
3.291945e+003,9.839925e+001
3.294838e+003,9.840509e+001
3.297731e+003,9.849275e+001
3.300624e+003,9.848927e+001
3.303516e+003,9.847092e+001
3.306409e+003,9.851358e+001
3.309302e+003,9.852808e+001
3.312195e+003,9.844048e+001
3.315087e+003,9.842513e+001
3.317980e+003,9.843054e+001
3.320873e+003,9.844803e+001
3.323766e+003,9.853162e+001
3.326658e+003,9.853793e+001
3.329551e+003,9.853153e+001
3.332444e+003,9.847820e+001
3.335337e+003,9.832332e+001
3.338229e+003,9.845285e+001
3.341122e+003,9.845118e+001
3.344015e+003,9.839285e+001
3.346907e+003,9.858574e+001
3.349800e+003,9.847699e+001
3.352693e+003,9.844843e+001
3.355586e+003,9.844609e+001
3.358479e+003,9.850378e+001
3.361371e+003,9.852776e+001
3.364264e+003,9.845944e+001
3.367157e+003,9.855059e+001
3.370050e+003,9.849751e+001
3.372942e+003,9.851616e+001
3.375835e+003,9.847074e+001
3.378728e+003,9.865975e+001
3.381621e+003,9.857601e+001
3.384513e+003,9.844720e+001
3.387406e+003,9.856963e+001
3.390299e+003,9.838326e+001
3.393191e+003,9.848311e+001
3.396084e+003,9.842264e+001
3.398977e+003,9.853778e+001
3.401870e+003,9.851309e+001
3.404762e+003,9.848586e+001
3.407655e+003,9.845702e+001
3.410548e+003,9.848970e+001
3.413441e+003,9.831356e+001
3.416333e+003,9.834068e+001
3.419226e+003,9.833910e+001
3.422119e+003,9.825427e+001
3.425012e+003,9.815672e+001
3.427905e+003,9.813484e+001
3.430797e+003,9.797493e+001
3.433690e+003,9.775786e+001
3.436583e+003,9.771593e+001
3.439475e+003,9.771388e+001
3.442368e+003,9.772133e+001
3.445261e+003,9.794701e+001
3.448154e+003,9.800124e+001
3.451046e+003,9.801746e+001
3.453939e+003,9.811226e+001
3.456832e+003,9.806268e+001
3.459725e+003,9.810178e+001
3.462617e+003,9.825874e+001
3.465510e+003,9.844381e+001
3.468403e+003,9.832648e+001
3.471296e+003,9.843136e+001
3.474188e+003,9.850005e+001
3.477081e+003,9.862683e+001
3.479974e+003,9.848701e+001
3.482867e+003,9.868490e+001
3.485760e+003,9.858863e+001
3.488652e+003,9.864137e+001
3.491545e+003,9.861462e+001
3.494438e+003,9.850230e+001
3.497330e+003,9.854694e+001
3.500223e+003,9.859623e+001
3.503116e+003,9.860036e+001
3.506009e+003,9.868358e+001
3.508901e+003,9.870815e+001
3.511794e+003,9.866331e+001
3.514687e+003,9.871452e+001
3.517580e+003,9.859260e+001
3.520472e+003,9.875134e+001
3.523365e+003,9.875764e+001
3.526258e+003,9.879148e+001
3.529151e+003,9.860857e+001
3.532043e+003,9.863890e+001
3.534936e+003,9.878455e+001
3.537829e+003,9.862284e+001
3.540722e+003,9.864309e+001
3.543614e+003,9.857491e+001
3.546507e+003,9.871376e+001
3.549400e+003,9.875722e+001
3.552292e+003,9.867179e+001
3.555185e+003,9.867110e+001
3.558078e+003,9.876584e+001
3.560971e+003,9.885070e+001
3.563864e+003,9.883461e+001
3.566756e+003,9.898796e+001
3.569649e+003,9.890225e+001
3.572542e+003,9.886594e+001
3.575435e+003,9.904272e+001
3.578327e+003,9.894051e+001
3.581220e+003,9.902982e+001
3.584113e+003,9.898074e+001
3.587006e+003,9.903903e+001
3.589898e+003,9.892110e+001
3.592791e+003,9.886330e+001
3.595684e+003,9.896178e+001
3.598576e+003,9.882736e+001
3.601469e+003,9.887959e+001
3.604362e+003,9.887125e+001
3.607255e+003,9.887076e+001
3.610147e+003,9.901755e+001
3.613040e+003,9.893974e+001
3.615933e+003,9.887724e+001
3.618826e+003,9.911546e+001
3.621719e+003,9.899014e+001
3.624611e+003,9.889347e+001
3.627504e+003,9.895153e+001
3.630397e+003,9.893130e+001
3.633290e+003,9.884966e+001
3.636182e+003,9.901261e+001
3.639075e+003,9.896797e+001
3.641968e+003,9.907256e+001
3.644860e+003,9.915072e+001
3.647753e+003,9.908857e+001
3.650646e+003,9.955717e+001
3.653539e+003,9.909982e+001
3.656431e+003,9.918896e+001
3.659324e+003,9.917059e+001
3.662217e+003,9.920078e+001
3.665110e+003,9.928413e+001
3.668002e+003,9.909892e+001
3.670895e+003,9.932674e+001
3.673788e+003,9.914449e+001
3.676681e+003,9.926680e+001
3.679573e+003,9.919814e+001
3.682466e+003,9.908963e+001
3.685359e+003,9.918432e+001
3.688252e+003,9.940288e+001
3.691145e+003,9.933298e+001
3.694037e+003,9.913564e+001
3.696930e+003,9.900143e+001
3.699823e+003,9.926094e+001
3.702715e+003,9.918605e+001
3.705608e+003,9.907163e+001
3.708501e+003,9.927162e+001
3.711394e+003,9.914957e+001
3.714286e+003,9.928623e+001
3.717179e+003,9.931335e+001
3.720072e+003,9.928685e+001
3.722965e+003,9.897207e+001
3.725857e+003,9.911726e+001
3.728750e+003,9.895689e+001
3.731643e+003,9.921158e+001
3.734536e+003,9.913021e+001
3.737428e+003,9.928367e+001
3.740321e+003,9.920419e+001
3.743214e+003,9.925829e+001
3.746107e+003,9.941182e+001
3.748999e+003,9.932777e+001
3.751892e+003,9.960951e+001
3.754785e+003,9.920426e+001
3.757677e+003,9.946935e+001
3.760570e+003,9.942593e+001
3.763463e+003,9.933098e+001
3.766356e+003,9.938635e+001
3.769249e+003,9.933002e+001
3.772141e+003,9.926269e+001
3.775034e+003,9.931075e+001
3.777927e+003,9.932334e+001
3.780820e+003,9.923964e+001
3.783712e+003,9.939118e+001
3.786605e+003,9.918872e+001
3.789498e+003,9.938243e+001
3.792391e+003,9.935616e+001
3.795283e+003,9.931127e+001
3.798176e+003,9.932587e+001
3.801069e+003,9.914711e+001
3.803961e+003,9.941141e+001
3.806854e+003,9.971566e+001
3.809747e+003,9.944820e+001
3.812640e+003,9.927268e+001
3.815532e+003,9.949811e+001
3.818425e+003,9.938441e+001
3.821318e+003,9.947762e+001
3.824211e+003,9.928140e+001
3.827104e+003,9.933208e+001
3.829996e+003,9.929459e+001
3.832889e+003,9.935271e+001
3.835782e+003,9.923100e+001
3.838675e+003,9.939334e+001
3.841567e+003,9.931361e+001
3.844460e+003,9.934486e+001
3.847353e+003,9.930131e+001
3.850245e+003,9.945405e+001
3.853138e+003,9.944762e+001
3.856031e+003,9.930239e+001
3.858924e+003,9.929276e+001
3.861816e+003,9.917039e+001
3.864709e+003,9.951892e+001
3.867602e+003,9.945573e+001
3.870495e+003,9.951462e+001
3.873387e+003,9.923217e+001
3.876280e+003,9.923174e+001
3.879173e+003,9.935535e+001
3.882066e+003,9.927263e+001
3.884958e+003,9.915779e+001
3.887851e+003,9.926693e+001
3.890744e+003,9.936411e+001
3.893637e+003,9.928879e+001
3.896529e+003,9.922645e+001
3.899422e+003,9.928766e+001
3.902315e+003,9.904230e+001
3.905208e+003,9.965369e+001
3.908100e+003,9.912836e+001
3.910993e+003,9.932988e+001
3.913886e+003,9.926552e+001
3.916779e+003,9.933971e+001
3.919671e+003,9.933901e+001
3.922564e+003,9.925533e+001
3.925457e+003,9.929740e+001
3.928350e+003,9.934674e+001
3.931242e+003,9.918486e+001
3.934135e+003,9.919585e+001
3.937028e+003,9.924854e+001
3.939921e+003,9.934867e+001
3.942813e+003,9.933828e+001
3.945706e+003,9.924543e+001
3.948599e+003,9.931356e+001
3.951492e+003,9.930795e+001
3.954384e+003,9.924290e+001
3.957277e+003,9.930138e+001
3.960170e+003,9.906424e+001
3.963063e+003,9.921128e+001
3.965955e+003,9.922461e+001
3.968848e+003,9.928912e+001
3.971741e+003,9.932146e+001
3.974634e+003,9.920975e+001
3.977526e+003,9.925798e+001
3.980419e+003,9.916144e+001
3.983312e+003,9.921942e+001
3.986205e+003,9.927762e+001
3.989097e+003,9.929865e+001
3.991990e+003,9.919547e+001
3.994883e+003,9.921429e+001
3.997776e+003,9.916920e+001
4.000668e+003,0.000000e+000