File: FTIR Data (PCL)/All Data/PCL_NaOH_PDA_1_1.CSV
3.991989e+002,0.000000e+000
4.020916e+002,0.000000e+000
4.049844e+002,0.000000e+000
4.078771e+002,0.000000e+000
4.107699e+002,0.000000e+000
4.136626e+002,0.000000e+000
4.165554e+002,0.000000e+000
4.194481e+002,0.000000e+000
4.223409e+002,0.000000e+000
4.252336e+002,0.000000e+000
4.281263e+002,0.000000e+000
4.310191e+002,0.000000e+000
4.339118e+002,0.000000e+000
4.368046e+002,0.000000e+000
4.396973e+002,0.000000e+000
4.425901e+002,0.000000e+000
4.454828e+002,0.000000e+000
4.483756e+002,0.000000e+000
4.512683e+002,0.000000e+000
4.541611e+002,0.000000e+000
4.570538e+002,0.000000e+000
4.599466e+002,0.000000e+000
4.628393e+002,0.000000e+000
4.657321e+002,0.000000e+000
4.686248e+002,0.000000e+000
4.715175e+002,0.000000e+000
4.744103e+002,0.000000e+000
4.773030e+002,0.000000e+000
4.801958e+002,0.000000e+000
4.830885e+002,0.000000e+000
4.859813e+002,0.000000e+000
4.888740e+002,0.000000e+000
4.917668e+002,0.000000e+000
4.946595e+002,0.000000e+000
4.975523e+002,0.000000e+000
5.004450e+002,0.000000e+000
5.033378e+002,0.000000e+000
5.062305e+002,0.000000e+000
5.091233e+002,0.000000e+000
5.120160e+002,0.000000e+000
5.149088e+002,0.000000e+000
5.178015e+002,0.000000e+000
5.206942e+002,0.000000e+000
5.235870e+002,0.000000e+000
5.264797e+002,0.000000e+000
5.293725e+002,0.000000e+000
5.322652e+002,0.000000e+000
5.351580e+002,0.000000e+000
5.380507e+002,0.000000e+000
5.409435e+002,0.000000e+000
5.438362e+002,0.000000e+000
5.467289e+002,0.000000e+000
5.496217e+002,8.392496e+001
5.525145e+002,8.646419e+001
5.554072e+002,8.866643e+001
5.582999e+002,8.248779e+001
5.611927e+002,8.622578e+001
5.640854e+002,8.500417e+001
5.669782e+002,8.074341e+001
5.698709e+002,8.001827e+001
5.727637e+002,8.043622e+001
5.756564e+002,7.605795e+001
5.785492e+002,7.921799e+001
5.814419e+002,7.868987e+001
5.843347e+002,7.924672e+001
5.872274e+002,7.931725e+001
5.901202e+002,8.155403e+001
5.930129e+002,8.152055e+001
5.959056e+002,8.350140e+001
5.987984e+002,8.436562e+001
6.016912e+002,8.402643e+001
6.045839e+002,8.481174e+001
6.074766e+002,8.416700e+001
6.103694e+002,8.483404e+001
6.132621e+002,8.459629e+001
6.161548e+002,8.502117e+001
6.190476e+002,8.526984e+001
6.219404e+002,8.644137e+001
6.248331e+002,8.567342e+001
6.277258e+002,8.586861e+001
6.306186e+002,8.504941e+001
6.335114e+002,8.563539e+001
6.364041e+002,8.535768e+001
6.392968e+002,8.545179e+001
6.421896e+002,8.535475e+001
6.450823e+002,8.556193e+001
6.479751e+002,8.552986e+001
6.508679e+002,8.549975e+001
6.537606e+002,8.556866e+001
6.566533e+002,8.577164e+001
6.595461e+002,8.589084e+001
6.624388e+002,8.557840e+001
6.653315e+002,8.558443e+001
6.682243e+002,8.558512e+001
6.711171e+002,8.542463e+001
6.740098e+002,8.536823e+001
6.769025e+002,8.487550e+001
6.797953e+002,8.491895e+001
6.826880e+002,8.431915e+001
6.855808e+002,8.370206e+001
6.884735e+002,8.327668e+001
6.913663e+002,8.248796e+001
6.942590e+002,8.126018e+001
6.971518e+002,8.020064e+001
7.000445e+002,7.870382e+001
7.029373e+002,7.684089e+001
7.058300e+002,7.479738e+001
7.087228e+002,7.345117e+001
7.116155e+002,7.399932e+001
7.145082e+002,7.568188e+001
7.174010e+002,7.629642e+001
7.202938e+002,7.529892e+001
7.231865e+002,7.077842e+001
7.260792e+002,6.341162e+001
7.289720e+002,6.056785e+001
7.318647e+002,5.852128e+001
7.347575e+002,6.449706e+001
7.376502e+002,7.151841e+001
7.405430e+002,7.696371e+001
7.434357e+002,8.091893e+001
7.463285e+002,8.348262e+001
7.492212e+002,8.485373e+001
7.521140e+002,8.587247e+001
7.550067e+002,8.653512e+001
7.578995e+002,8.707207e+001
7.607922e+002,8.730211e+001
7.636849e+002,8.674615e+001
7.665777e+002,8.594655e+001
7.694705e+002,8.519643e+001
7.723632e+002,8.445156e+001
7.752559e+002,8.485565e+001
7.781487e+002,8.571070e+001
7.810414e+002,8.643366e+001
7.839341e+002,8.685153e+001
7.868269e+002,8.707304e+001
7.897197e+002,8.714796e+001
7.926124e+002,8.723279e+001
7.955051e+002,8.720766e+001
7.983979e+002,8.713203e+001
8.012906e+002,8.700246e+001
8.041834e+002,8.700623e+001
8.070761e+002,8.700154e+001
8.099689e+002,8.691299e+001
8.128616e+002,8.701923e+001
8.157544e+002,8.700320e+001
8.186472e+002,8.696458e+001
8.215399e+002,8.674892e+001
8.244326e+002,8.655360e+001
8.273254e+002,8.628746e+001
8.302181e+002,8.558924e+001
8.331108e+002,8.425558e+001
8.360036e+002,8.204810e+001
8.388964e+002,7.905566e+001
8.417891e+002,7.992881e+001
8.446818e+002,8.373962e+001
8.475746e+002,8.494827e+001
8.504673e+002,8.533751e+001
8.533601e+002,8.521523e+001
8.562528e+002,8.522455e+001
8.591456e+002,8.515640e+001
8.620383e+002,8.502323e+001
8.649311e+002,8.494775e+001
8.678238e+002,8.476871e+001
8.707166e+002,8.469273e+001
8.736093e+002,8.462503e+001
8.765021e+002,8.457930e+001
8.793948e+002,8.451632e+001
8.822875e+002,8.441885e+001
8.851803e+002,8.429172e+001
8.880731e+002,8.411259e+001
8.909658e+002,8.400086e+001
8.938585e+002,8.392475e+001
8.967513e+002,8.379390e+001
8.996440e+002,8.360698e+001
9.025368e+002,8.337242e+001
9.054295e+002,8.288645e+001
9.083223e+002,8.245293e+001
9.112150e+002,8.184228e+001
9.141078e+002,8.118146e+001
9.170005e+002,8.049590e+001
9.198932e+002,7.949747e+001
9.227860e+002,7.812632e+001
9.256788e+002,7.613809e+001
9.285715e+002,7.326603e+001
9.314642e+002,7.002063e+001
9.343570e+002,6.902256e+001
9.372498e+002,7.203513e+001
9.401425e+002,7.477094e+001
9.430352e+002,7.508307e+001
9.459280e+002,7.387596e+001
9.488207e+002,7.147572e+001
9.517134e+002,6.811420e+001
9.546062e+002,6.428770e+001
9.574990e+002,6.020465e+001
9.603917e+002,5.774013e+001
9.632844e+002,6.083804e+001
9.661772e+002,6.752938e+001
9.690699e+002,7.160993e+001
9.719627e+002,7.383682e+001
9.748554e+002,7.547504e+001
9.777482e+002,7.706204e+001
9.806409e+002,7.809106e+001
9.835337e+002,7.838300e+001
9.864265e+002,7.826241e+001
9.893192e+002,7.810419e+001
9.922119e+002,7.790686e+001
9.951047e+002,7.793990e+001
9.979974e+002,7.789872e+001
1.000890e+003,7.770136e+001
1.003783e+003,7.737281e+001
1.006676e+003,7.680499e+001
1.009568e+003,7.630474e+001
1.012461e+003,7.560806e+001
1.015354e+003,7.475288e+001
1.018247e+003,7.382515e+001
1.021139e+003,7.277019e+001
1.024032e+003,7.135510e+001
1.026925e+003,6.960383e+001
1.029818e+003,6.748792e+001
1.032710e+003,6.510441e+001
1.035603e+003,6.196923e+001
1.038496e+003,5.835993e+001
1.041389e+003,5.443549e+001
1.044281e+003,5.140084e+001
1.047174e+003,5.215029e+001
1.050067e+003,5.843387e+001
1.052960e+003,6.509799e+001
1.055852e+003,6.921963e+001
1.058745e+003,7.034589e+001
1.061638e+003,6.869732e+001
1.064531e+003,6.637476e+001
1.067423e+003,6.746525e+001
1.070316e+003,7.129693e+001
1.073209e+003,7.337539e+001
1.076102e+003,7.348375e+001
1.078994e+003,7.233959e+001
1.081887e+003,7.033659e+001
1.084780e+003,6.803375e+001
1.087673e+003,6.576997e+001
1.090565e+003,6.386034e+001
1.093458e+003,6.262836e+001
1.096351e+003,6.199183e+001
1.099244e+003,6.145106e+001
1.102136e+003,6.009645e+001
1.105029e+003,5.800335e+001
1.107922e+003,5.691368e+001
1.110815e+003,6.035924e+001
1.113707e+003,6.624831e+001
1.116600e+003,7.072973e+001
1.119493e+003,7.271501e+001
1.122385e+003,7.240189e+001
1.125278e+003,7.084270e+001
1.128171e+003,6.857737e+001
1.131064e+003,6.592963e+001
1.133957e+003,6.277065e+001
1.136849e+003,5.912788e+001
1.139742e+003,5.498401e+001
1.142635e+003,5.041099e+001
1.145527e+003,4.543282e+001
1.148420e+003,4.050010e+001
1.151313e+003,3.612128e+001
1.154206e+003,3.270356e+001
1.157099e+003,3.046399e+001
1.159991e+003,2.935394e+001
1.162884e+003,2.913942e+001
1.165777e+003,2.958766e+001
1.168669e+003,3.033614e+001
1.171562e+003,3.133669e+001
1.174455e+003,3.240908e+001
1.177348e+003,3.361040e+001
1.180240e+003,3.507304e+001
1.183133e+003,3.625273e+001
1.186026e+003,3.739106e+001
1.188919e+003,4.033468e+001
1.191811e+003,4.560913e+001
1.194704e+003,5.262832e+001
1.197597e+003,6.024582e+001
1.200490e+003,6.616915e+001
1.203382e+003,6.932666e+001
1.206275e+003,7.101074e+001
1.209168e+003,7.179601e+001
1.212061e+003,7.210779e+001
1.214953e+003,7.190301e+001
1.217846e+003,7.124363e+001
1.220739e+003,7.008730e+001
1.223632e+003,6.820708e+001
1.226524e+003,6.497723e+001
1.229417e+003,5.980824e+001
1.232310e+003,5.283510e+001
1.235203e+003,4.604857e+001
1.238095e+003,4.333935e+001
1.240988e+003,4.549448e+001
1.243881e+003,5.006717e+001
1.246774e+003,5.852127e+001
1.249666e+003,6.785862e+001
1.252559e+003,7.309332e+001
1.255452e+003,7.544171e+001
1.258345e+003,7.670123e+001
1.261237e+003,7.769903e+001
1.264130e+003,7.836304e+001
1.267023e+003,7.864568e+001
1.269916e+003,7.849206e+001
1.272808e+003,7.791808e+001
1.275701e+003,7.716826e+001
1.278594e+003,7.627251e+001
1.281487e+003,7.513411e+001
1.284379e+003,7.354622e+001
1.287272e+003,7.042236e+001
1.290165e+003,6.400155e+001
1.293057e+003,5.919193e+001
1.295950e+003,6.306614e+001
1.298843e+003,6.975966e+001
1.301736e+003,7.475756e+001
1.304629e+003,7.743003e+001
1.307521e+003,7.966650e+001
1.310414e+003,8.151465e+001
1.313307e+003,8.275682e+001
1.316200e+003,8.347146e+001
1.319092e+003,8.380823e+001
1.321985e+003,8.380322e+001
1.324878e+003,8.392403e+001
1.327771e+003,8.455693e+001
1.330663e+003,8.537667e+001
1.333556e+003,8.586147e+001
1.336449e+003,8.584844e+001
1.339342e+003,8.520313e+001
1.342234e+003,8.396408e+001
1.345127e+003,8.209724e+001
1.348020e+003,7.956539e+001
1.350912e+003,7.649218e+001
1.353805e+003,7.376681e+001
1.356698e+003,7.139632e+001
1.359591e+003,6.791949e+001
1.362484e+003,6.418578e+001
1.365376e+003,6.272850e+001
1.368269e+003,6.524860e+001
1.371162e+003,6.951044e+001
1.374054e+003,7.178529e+001
1.376947e+003,7.512192e+001
1.379840e+003,8.027435e+001
1.382733e+003,8.341808e+001
1.385625e+003,8.399699e+001
1.388518e+003,8.272104e+001
1.391411e+003,8.043029e+001
1.394304e+003,7.789215e+001
1.397196e+003,7.664054e+001
1.400089e+003,7.927998e+001
1.402982e+003,8.278100e+001
1.405875e+003,8.482745e+001
1.408767e+003,8.384676e+001
1.411660e+003,8.010236e+001
1.414553e+003,7.620782e+001
1.417446e+003,7.506396e+001
1.420338e+003,7.576039e+001
1.423231e+003,8.061369e+001
1.426124e+003,8.505743e+001
1.429017e+003,8.686237e+001
1.431909e+003,8.699942e+001
1.434802e+003,8.615440e+001
1.437695e+003,8.599580e+001
1.440588e+003,8.663049e+001
1.443480e+003,8.708528e+001
1.446373e+003,8.676346e+001
1.449266e+003,8.615779e+001
1.452159e+003,8.513908e+001
1.455051e+003,8.386217e+001
1.457944e+003,8.128048e+001
1.460837e+003,8.032446e+001
1.463730e+003,7.894637e+001
1.466622e+003,7.919051e+001
1.469515e+003,7.600813e+001
1.472408e+003,7.812296e+001
1.475301e+003,8.176357e+001
1.478193e+003,8.279199e+001
1.481086e+003,8.723919e+001
1.483979e+003,9.078448e+001
1.486872e+003,9.242738e+001
1.489764e+003,9.319661e+001
1.492657e+003,9.351498e+001
1.495550e+003,9.366828e+001
1.498443e+003,9.376620e+001
1.501335e+003,9.370659e+001
1.504228e+003,9.367917e+001
1.507121e+003,9.411874e+001
1.510014e+003,9.379132e+001
1.512906e+003,9.387445e+001
1.515799e+003,9.400080e+001
1.518692e+003,9.411505e+001
1.521584e+003,9.428519e+001
1.524477e+003,9.423737e+001
1.527370e+003,9.430030e+001
1.530263e+003,9.436082e+001
1.533156e+003,9.436702e+001
1.536048e+003,9.444595e+001
1.538941e+003,9.446040e+001
1.541834e+003,9.456347e+001
1.544726e+003,9.447830e+001
1.547619e+003,9.448251e+001
1.550512e+003,9.452458e+001
1.553405e+003,9.440662e+001
1.556297e+003,9.443567e+001
1.559190e+003,9.478091e+001
1.562083e+003,9.437484e+001
1.564976e+003,9.432452e+001
1.567869e+003,9.426587e+001
1.570761e+003,9.420551e+001
1.573654e+003,9.410329e+001
1.576547e+003,9.400132e+001
1.579439e+003,9.388453e+001
1.582332e+003,9.384206e+001
1.585225e+003,9.373368e+001
1.588118e+003,9.363815e+001
1.591010e+003,9.356080e+001
1.593903e+003,9.343407e+001
1.596796e+003,9.328508e+001
1.599689e+003,9.317187e+001
1.602581e+003,9.307247e+001
1.605474e+003,9.286549e+001
1.608367e+003,9.276935e+001
1.611260e+003,9.255950e+001
1.614152e+003,9.246982e+001
1.617045e+003,9.251923e+001
1.619938e+003,9.219038e+001
1.622831e+003,9.206468e+001
1.625723e+003,9.185017e+001
1.628616e+003,9.169160e+001
1.631509e+003,9.151113e+001
1.634402e+003,9.141092e+001
1.637294e+003,9.140929e+001
1.640187e+003,9.130855e+001
1.643080e+003,9.120708e+001
1.645973e+003,9.109660e+001
1.648865e+003,9.101177e+001
1.651758e+003,9.069125e+001
1.654651e+003,9.058374e+001
1.657544e+003,9.006120e+001
1.660436e+003,8.962262e+001
1.663329e+003,8.909689e+001
1.666222e+003,8.829216e+001
1.669115e+003,8.755531e+001
1.672007e+003,8.635801e+001
1.674900e+003,8.495818e+001
1.677793e+003,8.312312e+001
1.680686e+003,8.080018e+001
1.683578e+003,7.873000e+001
1.686471e+003,7.657176e+001
1.689364e+003,7.472404e+001
1.692257e+003,7.309335e+001
1.695149e+003,7.124199e+001
1.698042e+003,6.885383e+001
1.700935e+003,6.574877e+001
1.703828e+003,6.250807e+001
1.706720e+003,5.734822e+001
1.709613e+003,5.093212e+001
1.712506e+003,4.222914e+001
1.715399e+003,3.156434e+001
1.718291e+003,2.210493e+001
1.721184e+003,1.960373e+001
1.724077e+003,2.453264e+001
1.726969e+003,3.306220e+001
1.729862e+003,4.011791e+001
1.732755e+003,4.496597e+001
1.735648e+003,5.304105e+001
1.738541e+003,5.931627e+001
1.741433e+003,6.820435e+001
1.744326e+003,7.674953e+001
1.747219e+003,8.325790e+001
1.750111e+003,8.777225e+001
1.753004e+003,9.064406e+001
1.755897e+003,9.210409e+001
1.758790e+003,9.302880e+001
1.761682e+003,9.366048e+001
1.764575e+003,9.404291e+001
1.767468e+003,9.443486e+001
1.770361e+003,9.468324e+001
1.773253e+003,9.517951e+001
1.776146e+003,9.540975e+001
1.779039e+003,9.564876e+001
1.781932e+003,9.595131e+001
1.784824e+003,9.617537e+001
1.787717e+003,9.638200e+001
1.790610e+003,9.663663e+001
1.793503e+003,9.688212e+001
1.796395e+003,9.699384e+001
1.799288e+003,9.711637e+001
1.802181e+003,9.738432e+001
1.805074e+003,9.742571e+001
1.807966e+003,9.754696e+001
1.810859e+003,9.763640e+001
1.813752e+003,9.777304e+001
1.816645e+003,9.795132e+001
1.819537e+003,9.783086e+001
1.822430e+003,9.791922e+001
1.825323e+003,9.794543e+001
1.828216e+003,9.801410e+001
1.831108e+003,9.805084e+001
1.834001e+003,9.804162e+001
1.836894e+003,9.799433e+001
1.839787e+003,9.796651e+001
1.842679e+003,9.805399e+001
1.845572e+003,9.810444e+001
1.848465e+003,9.815350e+001
1.851358e+003,9.816267e+001
1.854250e+003,9.829953e+001
1.857143e+003,9.830125e+001
1.860036e+003,9.840070e+001
1.862929e+003,9.839574e+001
1.865821e+003,9.837782e+001
1.868714e+003,9.836832e+001
1.871607e+003,9.838943e+001
1.874500e+003,9.834379e+001
1.877392e+003,9.839281e+001
1.880285e+003,9.848651e+001
1.883178e+003,9.838242e+001
1.886071e+003,9.827024e+001
1.888963e+003,9.837737e+001
1.891856e+003,9.838773e+001
1.894749e+003,9.836136e+001
1.897642e+003,9.834208e+001
1.900534e+003,9.830827e+001
1.903427e+003,9.833717e+001
1.906320e+003,9.833939e+001
1.909213e+003,9.830171e+001
1.912105e+003,9.822666e+001
1.914998e+003,9.831869e+001
1.917891e+003,9.807693e+001
1.920784e+003,9.817105e+001
1.923676e+003,9.838483e+001
1.926569e+003,9.835585e+001
1.929462e+003,9.844134e+001
1.932354e+003,9.837680e+001
1.935247e+003,9.839543e+001
1.938140e+003,9.848016e+001
1.941033e+003,9.845254e+001
1.943926e+003,9.830594e+001
1.946818e+003,9.843414e+001
1.949711e+003,9.841802e+001
1.952604e+003,9.833261e+001
1.955496e+003,9.850108e+001
1.958389e+003,9.849302e+001
1.961282e+003,9.828426e+001
1.964175e+003,9.830886e+001
1.967068e+003,9.860636e+001
1.969960e+003,9.865918e+001
1.972853e+003,9.838541e+001
1.975746e+003,9.851059e+001
1.978638e+003,9.776142e+001
1.981531e+003,9.826513e+001
1.984424e+003,9.846124e+001
1.987317e+003,9.814537e+001
1.990209e+003,9.829461e+001
1.993102e+003,9.848213e+001
1.995995e+003,9.846642e+001
1.998888e+003,9.836491e+001
2.001780e+003,9.820046e+001
2.004673e+003,9.849797e+001
2.007566e+003,9.807681e+001
2.010459e+003,9.834747e+001
2.013351e+003,9.825945e+001
2.016244e+003,9.844048e+001
2.019137e+003,9.853331e+001
2.022030e+003,9.829288e+001
2.024922e+003,9.841511e+001
2.027815e+003,9.805628e+001
2.030708e+003,9.811156e+001
2.033601e+003,9.811390e+001
2.036493e+003,9.819505e+001
2.039386e+003,9.823715e+001
2.042279e+003,9.799828e+001
2.045172e+003,9.826762e+001
2.048064e+003,9.803890e+001
2.050957e+003,9.790012e+001
2.053850e+003,9.820486e+001
2.056743e+003,9.802929e+001
2.059635e+003,9.829782e+001
2.062528e+003,9.810416e+001
2.065421e+003,9.827867e+001
2.068314e+003,9.813091e+001
2.071206e+003,9.801927e+001
2.074099e+003,9.806283e+001
2.076992e+003,9.808120e+001
2.079885e+003,9.803352e+001
2.082777e+003,9.801771e+001
2.085670e+003,9.799635e+001
2.088563e+003,9.818980e+001
2.091456e+003,9.813586e+001
2.094348e+003,9.814307e+001
2.097241e+003,9.787098e+001
2.100134e+003,9.790437e+001
2.103027e+003,9.806001e+001
2.105919e+003,9.804972e+001
2.108812e+003,9.809702e+001
2.111705e+003,9.811506e+001
2.114598e+003,9.817002e+001
2.117490e+003,9.815018e+001
2.120383e+003,9.843027e+001
2.123276e+003,9.834244e+001
2.126168e+003,9.849406e+001
2.129061e+003,9.859921e+001
2.131954e+003,9.870639e+001
2.134847e+003,9.865660e+001
2.137740e+003,9.857849e+001
2.140632e+003,9.839794e+001
2.143525e+003,9.858262e+001
2.146418e+003,9.862936e+001
2.149311e+003,9.856248e+001
2.152203e+003,9.859502e+001
2.155096e+003,9.859945e+001
2.157989e+003,9.899038e+001
2.160882e+003,9.792404e+001
2.163774e+003,9.792101e+001
2.166667e+003,9.807846e+001
2.169560e+003,9.818858e+001
2.172452e+003,9.830682e+001
2.175345e+003,9.847957e+001
2.178238e+003,9.861663e+001
2.181131e+003,9.808702e+001
2.184023e+003,9.831705e+001
2.186916e+003,9.815022e+001
2.189809e+003,9.821613e+001
2.192702e+003,9.858173e+001
2.195594e+003,9.836074e+001
2.198487e+003,9.837037e+001
2.201380e+003,9.822536e+001
2.204273e+003,9.859119e+001
2.207166e+003,9.840333e+001
2.210058e+003,9.822548e+001
2.212951e+003,9.848918e+001
2.215844e+003,9.831436e+001
2.218736e+003,9.825705e+001
2.221629e+003,9.817199e+001
2.224522e+003,9.824992e+001
2.227415e+003,9.843062e+001
2.230307e+003,9.836825e+001
2.233200e+003,9.833782e+001
2.236093e+003,9.812407e+001
2.238986e+003,9.826584e+001
2.241878e+003,9.840211e+001
2.244771e+003,9.826976e+001
2.247664e+003,9.852735e+001
2.250557e+003,9.835972e+001
2.253449e+003,9.840849e+001
2.256342e+003,9.836974e+001
2.259235e+003,9.824415e+001
2.262128e+003,9.825941e+001
2.265020e+003,9.833842e+001
2.267913e+003,9.835162e+001
2.270806e+003,9.828542e+001
2.273699e+003,9.821768e+001
2.276591e+003,9.820457e+001
2.279484e+003,9.814951e+001
2.282377e+003,9.813438e+001
2.285270e+003,9.804710e+001
2.288162e+003,9.819312e+001
2.291055e+003,9.811514e+001
2.293948e+003,9.816737e+001
2.296841e+003,9.809441e+001
2.299733e+003,9.828132e+001
2.302626e+003,9.822157e+001
2.305519e+003,9.808830e+001
2.308412e+003,9.811545e+001
2.311304e+003,9.817048e+001
2.314197e+003,9.812348e+001
2.317090e+003,9.805095e+001
2.319983e+003,9.801235e+001
2.322875e+003,9.794886e+001
2.325768e+003,9.811301e+001
2.328661e+003,9.830362e+001
2.331553e+003,9.817844e+001
2.334446e+003,9.826123e+001
2.337339e+003,9.810077e+001
2.340232e+003,9.821340e+001
2.343125e+003,9.808615e+001
2.346017e+003,9.819115e+001
2.348910e+003,9.824616e+001
2.351803e+003,9.832159e+001
2.354696e+003,9.828776e+001
2.357588e+003,9.833224e+001
2.360481e+003,9.852168e+001
2.363374e+003,9.855652e+001
2.366267e+003,9.877596e+001
2.369159e+003,9.830688e+001
2.372052e+003,9.862527e+001
2.374945e+003,9.851794e+001
2.377837e+003,9.849375e+001
2.380730e+003,9.848901e+001
2.383623e+003,9.846571e+001
2.386516e+003,9.843617e+001
2.389408e+003,9.850934e+001
2.392301e+003,9.841728e+001
2.395194e+003,9.838794e+001
2.398087e+003,9.842089e+001
2.400979e+003,9.843797e+001
2.403872e+003,9.841904e+001
2.406765e+003,9.826381e+001
2.409658e+003,9.827817e+001
2.412551e+003,9.824094e+001
2.415443e+003,9.826366e+001
2.418336e+003,9.820297e+001
2.421229e+003,9.827705e+001
2.424121e+003,9.825224e+001
2.427014e+003,9.839653e+001
2.429907e+003,9.839550e+001
2.432800e+003,9.830749e+001
2.435692e+003,9.823792e+001
2.438585e+003,9.834000e+001
2.441478e+003,9.831588e+001
2.444371e+003,9.833690e+001
2.447263e+003,9.831570e+001
2.450156e+003,9.827107e+001
2.453049e+003,9.831460e+001
2.455942e+003,9.830920e+001
2.458834e+003,9.834483e+001
2.461727e+003,9.834749e+001
2.464620e+003,9.834209e+001
2.467513e+003,9.823347e+001
2.470405e+003,9.825210e+001
2.473298e+003,9.832481e+001
2.476191e+003,9.821466e+001
2.479084e+003,9.825049e+001
2.481976e+003,9.827910e+001
2.484869e+003,9.816966e+001
2.487762e+003,9.830282e+001
2.490655e+003,9.825482e+001
2.493547e+003,9.831514e+001
2.496440e+003,9.824852e+001
2.499333e+003,9.824258e+001
2.502226e+003,9.826950e+001
2.505118e+003,9.833410e+001
2.508011e+003,9.830414e+001
2.510904e+003,9.830489e+001
2.513797e+003,9.817667e+001
2.516689e+003,9.824477e+001
2.519582e+003,9.825991e+001
2.522475e+003,9.814366e+001
2.525368e+003,9.814381e+001
2.528260e+003,9.818198e+001
2.531153e+003,9.810057e+001
2.534046e+003,9.806429e+001
2.536938e+003,9.814696e+001
2.539831e+003,9.807944e+001
2.542724e+003,9.809017e+001
2.545617e+003,9.807689e+001
2.548510e+003,9.809709e+001
2.551402e+003,9.818015e+001
2.554295e+003,9.815579e+001
2.557188e+003,9.811235e+001
2.560081e+003,9.810776e+001
2.562973e+003,9.816858e+001
2.565866e+003,9.802410e+001
2.568759e+003,9.803410e+001
2.571652e+003,9.801420e+001
2.574544e+003,9.804104e+001
2.577437e+003,9.794855e+001
2.580330e+003,9.798350e+001
2.583222e+003,9.805408e+001
2.586115e+003,9.798563e+001
2.589008e+003,9.806373e+001
2.591901e+003,9.797318e+001
2.594793e+003,9.798439e+001
2.597686e+003,9.792805e+001
2.600579e+003,9.799381e+001
2.603472e+003,9.801099e+001
2.606365e+003,9.786239e+001
2.609257e+003,9.794533e+001
2.612150e+003,9.788297e+001
2.615043e+003,9.787212e+001
2.617936e+003,9.789336e+001
2.620828e+003,9.788364e+001
2.623721e+003,9.794184e+001
2.626614e+003,9.777134e+001
2.629506e+003,9.783802e+001
2.632399e+003,9.782152e+001
2.635292e+003,9.772623e+001
2.638185e+003,9.775755e+001
2.641077e+003,9.773331e+001
2.643970e+003,9.772974e+001
2.646863e+003,9.772057e+001
2.649756e+003,9.775509e+001
2.652648e+003,9.768264e+001
2.655541e+003,9.770199e+001
2.658434e+003,9.771292e+001
2.661327e+003,9.773718e+001
2.664219e+003,9.776098e+001
2.667112e+003,9.778328e+001
2.670005e+003,9.778597e+001
2.672898e+003,9.776269e+001
2.675790e+003,9.772520e+001
2.678683e+003,9.771239e+001
2.681576e+003,9.772755e+001
2.684469e+003,9.769182e+001
2.687361e+003,9.770109e+001
2.690254e+003,9.766373e+001
2.693147e+003,9.768126e+001
2.696040e+003,9.769321e+001
2.698932e+003,9.763605e+001
2.701825e+003,9.767203e+001
2.704718e+003,9.769967e+001
2.707611e+003,9.757340e+001
2.710503e+003,9.763646e+001
2.713396e+003,9.753709e+001
2.716289e+003,9.760297e+001
2.719182e+003,9.759380e+001
2.722074e+003,9.759060e+001
2.724967e+003,9.754356e+001
2.727860e+003,9.763343e+001
2.730753e+003,9.753719e+001
2.733645e+003,9.754855e+001
2.736538e+003,9.752956e+001
2.739431e+003,9.750558e+001
2.742323e+003,9.748962e+001
2.745216e+003,9.746783e+001
2.748109e+003,9.731126e+001
2.751002e+003,9.741890e+001
2.753895e+003,9.737861e+001
2.756787e+003,9.732363e+001
2.759680e+003,9.737910e+001
2.762573e+003,9.740826e+001
2.765466e+003,9.731964e+001
2.768358e+003,9.723215e+001
2.771251e+003,9.726378e+001
2.774144e+003,9.715637e+001
2.777037e+003,9.717149e+001
2.779929e+003,9.717419e+001
2.782822e+003,9.709062e+001
2.785715e+003,9.711909e+001
2.788607e+003,9.707149e+001
2.791500e+003,9.704855e+001
2.794393e+003,9.695079e+001
2.797286e+003,9.691652e+001
2.800178e+003,9.679041e+001
2.803071e+003,9.674597e+001
2.805964e+003,9.668880e+001
2.808857e+003,9.654398e+001
2.811750e+003,9.642875e+001
2.814642e+003,9.620546e+001
2.817535e+003,9.601535e+001
2.820428e+003,9.581606e+001
2.823321e+003,9.562383e+001
2.826213e+003,9.536718e+001
2.829106e+003,9.519788e+001
2.831999e+003,9.500448e+001
2.834891e+003,9.465001e+001
2.837784e+003,9.412574e+001
2.840677e+003,9.348991e+001
2.843570e+003,9.256765e+001
2.846462e+003,9.136902e+001
2.849355e+003,8.964230e+001
2.852248e+003,8.780512e+001
2.855141e+003,8.578580e+001
2.858033e+003,8.378202e+001
2.860926e+003,8.193053e+001
2.863819e+003,8.071765e+001
2.866712e+003,8.073492e+001
2.869604e+003,8.183928e+001
2.872497e+003,8.385683e+001
2.875390e+003,8.593124e+001
2.878283e+003,8.744456e+001
2.881175e+003,8.820930e+001
2.884068e+003,8.830149e+001
2.886961e+003,8.760883e+001
2.889854e+003,8.629046e+001
2.892746e+003,8.485152e+001
2.895639e+003,8.443897e+001
2.898532e+003,8.494473e+001
2.901425e+003,8.501830e+001
2.904317e+003,8.444330e+001
2.907210e+003,8.360769e+001
2.910103e+003,8.283636e+001
2.912996e+003,8.202361e+001
2.915888e+003,8.112332e+001
2.918781e+003,7.988155e+001
2.921674e+003,7.864665e+001
2.924567e+003,7.747989e+001
2.927459e+003,7.657172e+001
2.930352e+003,7.570709e+001
2.933245e+003,7.443736e+001
2.936137e+003,7.354839e+001
2.939030e+003,7.306184e+001
2.941923e+003,7.269285e+001
2.944816e+003,7.263810e+001
2.947708e+003,7.335807e+001
2.950601e+003,7.470669e+001
2.953494e+003,7.594620e+001
2.956387e+003,7.740414e+001
2.959280e+003,7.956237e+001
2.962172e+003,8.207632e+001
2.965065e+003,8.425024e+001
2.967958e+003,8.628230e+001
2.970851e+003,8.810765e+001
2.973743e+003,8.981898e+001
2.976636e+003,9.125935e+001
2.979529e+003,9.241471e+001
2.982422e+003,9.341658e+001
2.985314e+003,9.414827e+001
2.988207e+003,9.477407e+001
2.991100e+003,9.521418e+001
2.993992e+003,9.571877e+001
2.996885e+003,9.592954e+001
2.999778e+003,9.626431e+001
3.002671e+003,9.634863e+001
3.005563e+003,9.658368e+001
3.008456e+003,9.672970e+001
3.011349e+003,9.683450e+001
3.014242e+003,9.694542e+001
3.017135e+003,9.700100e+001
3.020027e+003,9.689558e+001
3.022920e+003,9.706872e+001
3.025813e+003,9.703690e+001
3.028706e+003,9.707929e+001
3.031598e+003,9.708128e+001
3.034491e+003,9.713545e+001
3.037384e+003,9.717774e+001
3.040276e+003,9.722160e+001
3.043169e+003,9.706910e+001
3.046062e+003,9.712502e+001
3.048955e+003,9.728587e+001
3.051847e+003,9.718961e+001
3.054740e+003,9.715990e+001
3.057633e+003,9.711150e+001
3.060526e+003,9.721919e+001
3.063418e+003,9.718070e+001
3.066311e+003,9.712103e+001
3.069204e+003,9.718086e+001
3.072097e+003,9.718455e+001
3.074990e+003,9.715482e+001
3.077882e+003,9.716393e+001
3.080775e+003,9.725352e+001
3.083668e+003,9.720511e+001
3.086560e+003,9.721425e+001
3.089453e+003,9.719730e+001
3.092346e+003,9.722977e+001
3.095239e+003,9.711155e+001
3.098131e+003,9.719899e+001
3.101024e+003,9.729340e+001
3.103917e+003,9.722441e+001
3.106810e+003,9.716050e+001
3.109702e+003,9.712478e+001
3.112595e+003,9.717558e+001
3.115488e+003,9.720532e+001
3.118381e+003,9.716716e+001
3.121273e+003,9.722784e+001
3.124166e+003,9.711425e+001
3.127059e+003,9.722530e+001
3.129952e+003,9.714474e+001
3.132844e+003,9.714733e+001
3.135737e+003,9.711954e+001
3.138630e+003,9.716703e+001
3.141522e+003,9.711450e+001
3.144415e+003,9.720049e+001
3.147308e+003,9.717233e+001
3.150201e+003,9.718903e+001
3.153094e+003,9.706654e+001
3.155986e+003,9.714374e+001
3.158879e+003,9.713387e+001
3.161772e+003,9.722464e+001
3.164665e+003,9.714697e+001
3.167557e+003,9.717945e+001
3.170450e+003,9.713463e+001
3.173343e+003,9.713927e+001
3.176236e+003,9.709890e+001
3.179128e+003,9.706508e+001
3.182021e+003,9.719863e+001
3.184914e+003,9.707253e+001
3.187806e+003,9.725417e+001
3.190699e+003,9.712822e+001
3.193592e+003,9.701012e+001
3.196485e+003,9.712540e+001
3.199377e+003,9.711890e+001
3.202270e+003,9.707941e+001
3.205163e+003,9.704505e+001
3.208056e+003,9.705595e+001
3.210948e+003,9.709743e+001
3.213841e+003,9.709578e+001
3.216734e+003,9.710506e+001
3.219627e+003,9.712842e+001
3.222520e+003,9.703825e+001
3.225412e+003,9.711292e+001
3.228305e+003,9.713710e+001
3.231198e+003,9.711931e+001
3.234091e+003,9.710240e+001
3.236983e+003,9.701820e+001
3.239876e+003,9.709423e+001
3.242769e+003,9.712186e+001
3.245661e+003,9.709278e+001
3.248554e+003,9.718630e+001
3.251447e+003,9.698254e+001
3.254340e+003,9.702151e+001
3.257232e+003,9.703104e+001
3.260125e+003,9.715349e+001
3.263018e+003,9.709458e+001
3.265911e+003,9.706123e+001
3.268803e+003,9.708630e+001
3.271696e+003,9.705920e+001
3.274589e+003,9.711144e+001
3.277482e+003,9.706345e+001
3.280375e+003,9.710359e+001
3.283267e+003,9.711858e+001
3.286160e+003,9.715649e+001
3.289053e+003,9.702526e+001
3.291945e+003,9.709814e+001
3.294838e+003,9.706520e+001
3.297731e+003,9.708186e+001
3.300624e+003,9.718935e+001
3.303516e+003,9.710992e+001
3.306409e+003,9.717151e+001
3.309302e+003,9.702868e+001
3.312195e+003,9.707739e+001
3.315087e+003,9.706619e+001
3.317980e+003,9.706204e+001
3.320873e+003,9.708984e+001
3.323766e+003,9.718617e+001
3.326658e+003,9.713847e+001
3.329551e+003,9.708831e+001
3.332444e+003,9.710014e+001
3.335337e+003,9.698563e+001
3.338229e+003,9.716034e+001
3.341122e+003,9.711736e+001
3.344015e+003,9.708275e+001
3.346907e+003,9.708456e+001
3.349800e+003,9.703766e+001
3.352693e+003,9.711807e+001
3.355586e+003,9.708284e+001
3.358479e+003,9.700700e+001
3.361371e+003,9.715770e+001
3.364264e+003,9.700262e+001
3.367157e+003,9.715779e+001
3.370050e+003,9.715216e+001
3.372942e+003,9.716068e+001
3.375835e+003,9.717287e+001
3.378728e+003,9.717834e+001
3.381621e+003,9.726216e+001
3.384513e+003,9.712301e+001
3.387406e+003,9.713995e+001
3.390299e+003,9.714037e+001
3.393191e+003,9.721239e+001
3.396084e+003,9.714170e+001
3.398977e+003,9.729446e+001
3.401870e+003,9.720564e+001
3.404762e+003,9.724607e+001
3.407655e+003,9.722842e+001
3.410548e+003,9.728591e+001
3.413441e+003,9.710656e+001
3.416333e+003,9.700623e+001
3.419226e+003,9.713351e+001
3.422119e+003,9.709215e+001
3.425012e+003,9.703744e+001
3.427905e+003,9.687304e+001
3.430797e+003,9.678786e+001
3.433690e+003,9.666106e+001
3.436583e+003,9.655109e+001
3.439475e+003,9.664196e+001
3.442368e+003,9.675305e+001
3.445261e+003,9.681400e+001
3.448154e+003,9.691447e+001
3.451046e+003,9.693702e+001
3.453939e+003,9.706776e+001
3.456832e+003,9.697884e+001
3.459725e+003,9.712592e+001
3.462617e+003,9.720660e+001
3.465510e+003,9.730891e+001
3.468403e+003,9.733998e+001
3.471296e+003,9.743295e+001
3.474188e+003,9.741278e+001
3.477081e+003,9.763170e+001
3.479974e+003,9.750087e+001
3.482867e+003,9.762358e+001
3.485760e+003,9.765893e+001
3.488652e+003,9.758003e+001
3.491545e+003,9.770364e+001
3.494438e+003,9.752664e+001
3.497330e+003,9.745474e+001
3.500223e+003,9.771685e+001
3.503116e+003,9.768316e+001
3.506009e+003,9.771173e+001
3.508901e+003,9.772408e+001
3.511794e+003,9.769690e+001
3.514687e+003,9.771616e+001
3.517580e+003,9.763493e+001
3.520472e+003,9.774938e+001
3.523365e+003,9.784689e+001
3.526258e+003,9.781094e+001
3.529151e+003,9.761964e+001
3.532043e+003,9.775101e+001
3.534936e+003,9.784747e+001
3.537829e+003,9.784007e+001
3.540722e+003,9.786065e+001
3.543614e+003,9.778205e+001
3.546507e+003,9.784122e+001
3.549400e+003,9.786621e+001
3.552292e+003,9.786163e+001
3.555185e+003,9.790424e+001
3.558078e+003,9.801772e+001
3.560971e+003,9.807590e+001
3.563864e+003,9.796321e+001
3.566756e+003,9.832137e+001
3.569649e+003,9.809170e+001
3.572542e+003,9.814294e+001
3.575435e+003,9.827383e+001
3.578327e+003,9.814924e+001
3.581220e+003,9.822713e+001
3.584113e+003,9.828564e+001
3.587006e+003,9.839999e+001
3.589898e+003,9.831436e+001
3.592791e+003,9.831461e+001
3.595684e+003,9.845968e+001
3.598576e+003,9.828298e+001
3.601469e+003,9.834771e+001
3.604362e+003,9.824928e+001
3.607255e+003,9.833781e+001
3.610147e+003,9.850689e+001
3.613040e+003,9.848200e+001
3.615933e+003,9.828011e+001
3.618826e+003,9.848421e+001
3.621719e+003,9.844519e+001
3.624611e+003,9.857253e+001
3.627504e+003,9.859267e+001
3.630397e+003,9.849438e+001
3.633290e+003,9.848848e+001
3.636182e+003,9.852023e+001
3.639075e+003,9.856094e+001
3.641968e+003,9.874931e+001
3.644860e+003,9.875906e+001
3.647753e+003,9.883823e+001
3.650646e+003,9.895193e+001
3.653539e+003,9.864861e+001
3.656431e+003,9.885394e+001
3.659324e+003,9.878792e+001
3.662217e+003,9.890696e+001
3.665110e+003,9.891718e+001
3.668002e+003,9.888342e+001
3.670895e+003,9.894773e+001
3.673788e+003,9.894187e+001
3.676681e+003,9.926137e+001
3.679573e+003,9.893829e+001
3.682466e+003,9.896391e+001
3.685359e+003,9.896977e+001
3.688252e+003,9.914921e+001
3.691145e+003,9.939686e+001
3.694037e+003,9.905740e+001
3.696930e+003,9.903487e+001
3.699823e+003,9.903217e+001
3.702715e+003,9.921132e+001
3.705608e+003,9.900729e+001
3.708501e+003,9.926447e+001
3.711394e+003,9.914552e+001
3.714286e+003,9.907424e+001
3.717179e+003,9.923278e+001
3.720072e+003,9.907188e+001
3.722965e+003,9.901198e+001
3.725857e+003,9.916621e+001
3.728750e+003,9.915910e+001
3.731643e+003,9.937345e+001
3.734536e+003,9.918801e+001
3.737428e+003,9.915879e+001
3.740321e+003,9.900325e+001
3.743214e+003,9.944433e+001
3.746107e+003,9.915269e+001
3.748999e+003,9.918205e+001
3.751892e+003,9.978037e+001
3.754785e+003,9.899899e+001
3.757677e+003,9.915022e+001
3.760570e+003,9.906169e+001
3.763463e+003,9.913074e+001
3.766356e+003,9.914809e+001
3.769249e+003,9.909103e+001
3.772141e+003,9.907448e+001
3.775034e+003,9.903204e+001
3.777927e+003,9.917753e+001
3.780820e+003,9.909031e+001
3.783712e+003,9.913074e+001
3.786605e+003,9.903401e+001
3.789498e+003,9.912233e+001
3.792391e+003,9.910318e+001
3.795283e+003,9.905434e+001
3.798176e+003,9.916428e+001
3.801069e+003,9.886835e+001
3.803961e+003,9.912534e+001
3.806854e+003,9.931973e+001
3.809747e+003,9.914650e+001
3.812640e+003,9.906265e+001
3.815532e+003,9.962015e+001
3.818425e+003,9.919220e+001
3.821318e+003,9.911106e+001
3.824211e+003,9.897018e+001
3.827104e+003,9.920924e+001
3.829996e+003,9.907146e+001
3.832889e+003,9.907863e+001
3.835782e+003,9.898178e+001
3.838675e+003,9.926659e+001
3.841567e+003,9.908421e+001
3.844460e+003,9.910000e+001
3.847353e+003,9.908491e+001
3.850245e+003,9.909596e+001
3.853138e+003,9.936397e+001
3.856031e+003,9.899364e+001
3.858924e+003,9.907452e+001
3.861816e+003,9.906358e+001
3.864709e+003,9.937904e+001
3.867602e+003,9.913586e+001
3.870495e+003,9.935797e+001
3.873387e+003,9.915237e+001
3.876280e+003,9.912405e+001
3.879173e+003,9.912053e+001
3.882066e+003,9.904875e+001
3.884958e+003,9.902768e+001
3.887851e+003,9.895604e+001
3.890744e+003,9.924020e+001
3.893637e+003,9.909453e+001
3.896529e+003,9.904518e+001
3.899422e+003,9.909014e+001
3.902315e+003,9.880725e+001
3.905208e+003,9.921667e+001
3.908100e+003,9.897400e+001
3.910993e+003,9.919376e+001
3.913886e+003,9.916126e+001
3.916779e+003,9.906683e+001
3.919671e+003,9.901788e+001
3.922564e+003,9.908716e+001
3.925457e+003,9.909145e+001
3.928350e+003,9.909009e+001
3.931242e+003,9.910101e+001
3.934135e+003,9.896487e+001
3.937028e+003,9.899443e+001
3.939921e+003,9.920045e+001
3.942813e+003,9.908683e+001
3.945706e+003,9.902773e+001
3.948599e+003,9.907656e+001
3.951492e+003,9.901179e+001
3.954384e+003,9.915246e+001
3.957277e+003,9.909530e+001
3.960170e+003,9.897758e+001
3.963063e+003,9.906176e+001
3.965955e+003,9.898280e+001
3.968848e+003,9.908186e+001
3.971741e+003,9.907782e+001
3.974634e+003,9.896773e+001
3.977526e+003,9.908847e+001
3.980419e+003,9.897487e+001
3.983312e+003,9.899448e+001
3.986205e+003,9.910130e+001
3.989097e+003,9.916863e+001
3.991990e+003,9.899814e+001
3.994883e+003,9.914619e+001
3.997776e+003,9.895522e+001
4.000668e+003,0.000000e+000