File: FTIR Data (PCL)/All Data/PCL_NaOH_PDA_3_1.CSV
3.991989e+002,0.000000e+000
4.020916e+002,0.000000e+000
4.049844e+002,0.000000e+000
4.078771e+002,0.000000e+000
4.107699e+002,0.000000e+000
4.136626e+002,0.000000e+000
4.165554e+002,0.000000e+000
4.194481e+002,0.000000e+000
4.223409e+002,0.000000e+000
4.252336e+002,0.000000e+000
4.281263e+002,0.000000e+000
4.310191e+002,0.000000e+000
4.339118e+002,0.000000e+000
4.368046e+002,0.000000e+000
4.396973e+002,0.000000e+000
4.425901e+002,0.000000e+000
4.454828e+002,0.000000e+000
4.483756e+002,0.000000e+000
4.512683e+002,0.000000e+000
4.541611e+002,0.000000e+000
4.570538e+002,0.000000e+000
4.599466e+002,0.000000e+000
4.628393e+002,0.000000e+000
4.657321e+002,0.000000e+000
4.686248e+002,0.000000e+000
4.715175e+002,0.000000e+000
4.744103e+002,0.000000e+000
4.773030e+002,0.000000e+000
4.801958e+002,0.000000e+000
4.830885e+002,0.000000e+000
4.859813e+002,0.000000e+000
4.888740e+002,0.000000e+000
4.917668e+002,0.000000e+000
4.946595e+002,0.000000e+000
4.975523e+002,0.000000e+000
5.004450e+002,0.000000e+000
5.033378e+002,0.000000e+000
5.062305e+002,0.000000e+000
5.091233e+002,0.000000e+000
5.120160e+002,0.000000e+000
5.149088e+002,0.000000e+000
5.178015e+002,0.000000e+000
5.206942e+002,0.000000e+000
5.235870e+002,0.000000e+000
5.264797e+002,0.000000e+000
5.293725e+002,0.000000e+000
5.322652e+002,0.000000e+000
5.351580e+002,0.000000e+000
5.380507e+002,0.000000e+000
5.409435e+002,0.000000e+000
5.438362e+002,0.000000e+000
5.467289e+002,0.000000e+000
5.496217e+002,8.773154e+001
5.525145e+002,8.385526e+001
5.554072e+002,8.795524e+001
5.582999e+002,8.580669e+001
5.611927e+002,8.552313e+001
5.640854e+002,8.413245e+001
5.669782e+002,8.310984e+001
5.698709e+002,8.210637e+001
5.727637e+002,8.110085e+001
5.756564e+002,7.889990e+001
5.785492e+002,8.039485e+001
5.814419e+002,7.851659e+001
5.843347e+002,7.639594e+001
5.872274e+002,7.825575e+001
5.901202e+002,8.081748e+001
5.930129e+002,8.144118e+001
5.959056e+002,8.314215e+001
5.987984e+002,8.297715e+001
6.016912e+002,8.356387e+001
6.045839e+002,8.424839e+001
6.074766e+002,8.438386e+001
6.103694e+002,8.464787e+001
6.132621e+002,8.411428e+001
6.161548e+002,8.475874e+001
6.190476e+002,8.605416e+001
6.219404e+002,8.576448e+001
6.248331e+002,8.435473e+001
6.277258e+002,8.491940e+001
6.306186e+002,8.442673e+001
6.335114e+002,8.511366e+001
6.364041e+002,8.525751e+001
6.392968e+002,8.488929e+001
6.421896e+002,8.469490e+001
6.450823e+002,8.447668e+001
6.479751e+002,8.457675e+001
6.508679e+002,8.427299e+001
6.537606e+002,8.439888e+001
6.566533e+002,8.456213e+001
6.595461e+002,8.466139e+001
6.624388e+002,8.445666e+001
6.653315e+002,8.481727e+001
6.682243e+002,8.003724e+001
6.711171e+002,8.424416e+001
6.740098e+002,8.411703e+001
6.769025e+002,8.349926e+001
6.797953e+002,8.330309e+001
6.826880e+002,8.290775e+001
6.855808e+002,8.257684e+001
6.884735e+002,8.202825e+001
6.913663e+002,8.145809e+001
6.942590e+002,8.055083e+001
6.971518e+002,7.952233e+001
7.000445e+002,7.823334e+001
7.029373e+002,7.642457e+001
7.058300e+002,7.419918e+001
7.087228e+002,7.304231e+001
7.116155e+002,7.368221e+001
7.145082e+002,7.532029e+001
7.174010e+002,7.596906e+001
7.202938e+002,7.465165e+001
7.231865e+002,7.060955e+001
7.260792e+002,6.332381e+001
7.289720e+002,6.080482e+001
7.318647e+002,5.867292e+001
7.347575e+002,6.467165e+001
7.376502e+002,7.137344e+001
7.405430e+002,7.673151e+001
7.434357e+002,8.078847e+001
7.463285e+002,8.321420e+001
7.492212e+002,8.471310e+001
7.521140e+002,8.564451e+001
7.550067e+002,8.631201e+001
7.578995e+002,8.679653e+001
7.607922e+002,8.694139e+001
7.636849e+002,8.646115e+001
7.665777e+002,8.569041e+001
7.694705e+002,8.491853e+001
7.723632e+002,8.426563e+001
7.752559e+002,8.453683e+001
7.781487e+002,8.548171e+001
7.810414e+002,8.616656e+001
7.839341e+002,8.657633e+001
7.868269e+002,8.678158e+001
7.897197e+002,8.685256e+001
7.926124e+002,8.696611e+001
7.955051e+002,8.693918e+001
7.983979e+002,8.689367e+001
8.012906e+002,8.677317e+001
8.041834e+002,8.677246e+001
8.070761e+002,8.669469e+001
8.099689e+002,8.671046e+001
8.128616e+002,8.669135e+001
8.157544e+002,8.671578e+001
8.186472e+002,8.665162e+001
8.215399e+002,8.649364e+001
8.244326e+002,8.623284e+001
8.273254e+002,8.587839e+001
8.302181e+002,8.536327e+001
8.331108e+002,8.398516e+001
8.360036e+002,8.177977e+001
8.388964e+002,7.884433e+001
8.417891e+002,7.973157e+001
8.446818e+002,8.362343e+001
8.475746e+002,8.471994e+001
8.504673e+002,8.515087e+001
8.533601e+002,8.504221e+001
8.562528e+002,8.505436e+001
8.591456e+002,8.503741e+001
8.620383e+002,8.475998e+001
8.649311e+002,8.475662e+001
8.678238e+002,8.459438e+001
8.707166e+002,8.440356e+001
8.736093e+002,8.434900e+001
8.765021e+002,8.432926e+001
8.793948e+002,8.419093e+001
8.822875e+002,8.414069e+001
8.851803e+002,8.390553e+001
8.880731e+002,8.385414e+001
8.909658e+002,8.370259e+001
8.938585e+002,8.360973e+001
8.967513e+002,8.355185e+001
8.996440e+002,8.328213e+001
9.025368e+002,8.307270e+001
9.054295e+002,8.264909e+001
9.083223e+002,8.214039e+001
9.112150e+002,8.153277e+001
9.141078e+002,8.092364e+001
9.170005e+002,8.021890e+001
9.198932e+002,7.929295e+001
9.227860e+002,7.800134e+001
9.256788e+002,7.591809e+001
9.285715e+002,7.311311e+001
9.314642e+002,6.999630e+001
9.343570e+002,6.889418e+001
9.372498e+002,7.187222e+001
9.401425e+002,7.455211e+001
9.430352e+002,7.489996e+001
9.459280e+002,7.363503e+001
9.488207e+002,7.121689e+001
9.517134e+002,6.780519e+001
9.546062e+002,6.403188e+001
9.574990e+002,5.998346e+001
9.603917e+002,5.762673e+001
9.632844e+002,6.094969e+001
9.661772e+002,6.759789e+001
9.690699e+002,7.164285e+001
9.719627e+002,7.382468e+001
9.748554e+002,7.545671e+001
9.777482e+002,7.706459e+001
9.806409e+002,7.796134e+001
9.835337e+002,7.821995e+001
9.864265e+002,7.808573e+001
9.893192e+002,7.792049e+001
9.922119e+002,7.772620e+001
9.951047e+002,7.775215e+001
9.979974e+002,7.771429e+001
1.000890e+003,7.747330e+001
1.003783e+003,7.712003e+001
1.006676e+003,7.658266e+001
1.009568e+003,7.603026e+001
1.012461e+003,7.537389e+001
1.015354e+003,7.455022e+001
1.018247e+003,7.362936e+001
1.021139e+003,7.250084e+001
1.024032e+003,7.106877e+001
1.026925e+003,6.933827e+001
1.029818e+003,6.716556e+001
1.032710e+003,6.487677e+001
1.035603e+003,6.156429e+001
1.038496e+003,5.799855e+001
1.041389e+003,5.415171e+001
1.044281e+003,5.114268e+001
1.047174e+003,5.191935e+001
1.050067e+003,5.795541e+001
1.052960e+003,6.460488e+001
1.055852e+003,6.894080e+001
1.058745e+003,7.028399e+001
1.061638e+003,6.865241e+001
1.064531e+003,6.643530e+001
1.067423e+003,6.753922e+001
1.070316e+003,7.128857e+001
1.073209e+003,7.328580e+001
1.076102e+003,7.336758e+001
1.078994e+003,7.217514e+001
1.081887e+003,7.012626e+001
1.084780e+003,6.787708e+001
1.087673e+003,6.563253e+001
1.090565e+003,6.377133e+001
1.093458e+003,6.249497e+001
1.096351e+003,6.191178e+001
1.099244e+003,6.125873e+001
1.102136e+003,5.997304e+001
1.105029e+003,5.781015e+001
1.107922e+003,5.673565e+001
1.110815e+003,6.011552e+001
1.113707e+003,6.597566e+001
1.116600e+003,7.047295e+001
1.119493e+003,7.238975e+001
1.122385e+003,7.200600e+001
1.125278e+003,7.034772e+001
1.128171e+003,6.811983e+001
1.131064e+003,6.542928e+001
1.133957e+003,6.228632e+001
1.136849e+003,5.867225e+001
1.139742e+003,5.452787e+001
1.142635e+003,4.996225e+001
1.145527e+003,4.501277e+001
1.148420e+003,4.021303e+001
1.151313e+003,3.588559e+001
1.154206e+003,3.250962e+001
1.157099e+003,3.028109e+001
1.159991e+003,2.920697e+001
1.162884e+003,2.902931e+001
1.165777e+003,2.949341e+001
1.168669e+003,3.023055e+001
1.171562e+003,3.132596e+001
1.174455e+003,3.254717e+001
1.177348e+003,3.388371e+001
1.180240e+003,3.545826e+001
1.183133e+003,3.676112e+001
1.186026e+003,3.811873e+001
1.188919e+003,4.135199e+001
1.191811e+003,4.673396e+001
1.194704e+003,5.376685e+001
1.197597e+003,6.111962e+001
1.200490e+003,6.678071e+001
1.203382e+003,6.981427e+001
1.206275e+003,7.142828e+001
1.209168e+003,7.223767e+001
1.212061e+003,7.251714e+001
1.214953e+003,7.227180e+001
1.217846e+003,7.163728e+001
1.220739e+003,7.047538e+001
1.223632e+003,6.854871e+001
1.226524e+003,6.527251e+001
1.229417e+003,6.003926e+001
1.232310e+003,5.291766e+001
1.235203e+003,4.610116e+001
1.238095e+003,4.364174e+001
1.240988e+003,4.614818e+001
1.243881e+003,5.101267e+001
1.246774e+003,5.948185e+001
1.249666e+003,6.865480e+001
1.252559e+003,7.370120e+001
1.255452e+003,7.592832e+001
1.258345e+003,7.720422e+001
1.261237e+003,7.817194e+001
1.264130e+003,7.878875e+001
1.267023e+003,7.904082e+001
1.269916e+003,7.887131e+001
1.272808e+003,7.834769e+001
1.275701e+003,7.752267e+001
1.278594e+003,7.659311e+001
1.281487e+003,7.542486e+001
1.284379e+003,7.378354e+001
1.287272e+003,7.063928e+001
1.290165e+003,6.417743e+001
1.293057e+003,5.962758e+001
1.295950e+003,6.369574e+001
1.298843e+003,7.026265e+001
1.301736e+003,7.511638e+001
1.304629e+003,7.776135e+001
1.307521e+003,7.996220e+001
1.310414e+003,8.177068e+001
1.313307e+003,8.292395e+001
1.316200e+003,8.366989e+001
1.319092e+003,8.400494e+001
1.321985e+003,8.403248e+001
1.324878e+003,8.412559e+001
1.327771e+003,8.474609e+001
1.330663e+003,8.556106e+001
1.333556e+003,8.602833e+001
1.336449e+003,8.601354e+001
1.339342e+003,8.545283e+001
1.342234e+003,8.413049e+001
1.345127e+003,8.226212e+001
1.348020e+003,7.975900e+001
1.350912e+003,7.669725e+001
1.353805e+003,7.393403e+001
1.356698e+003,7.151712e+001
1.359591e+003,6.799047e+001
1.362484e+003,6.433156e+001
1.365376e+003,6.306339e+001
1.368269e+003,6.575291e+001
1.371162e+003,6.999583e+001
1.374054e+003,7.236913e+001
1.376947e+003,7.559369e+001
1.379840e+003,8.055784e+001
1.382733e+003,8.364665e+001
1.385625e+003,8.417731e+001
1.388518e+003,8.297089e+001
1.391411e+003,8.070271e+001
1.394304e+003,7.822678e+001
1.397196e+003,7.696471e+001
1.400089e+003,7.957328e+001
1.402982e+003,8.300925e+001
1.405875e+003,8.495385e+001
1.408767e+003,8.397658e+001
1.411660e+003,8.023995e+001
1.414553e+003,7.648068e+001
1.417446e+003,7.545148e+001
1.420338e+003,7.631525e+001
1.423231e+003,8.094748e+001
1.426124e+003,8.520776e+001
1.429017e+003,8.706491e+001
1.431909e+003,8.718359e+001
1.434802e+003,8.633513e+001
1.437695e+003,8.626340e+001
1.440588e+003,8.681723e+001
1.443480e+003,8.724140e+001
1.446373e+003,8.695798e+001
1.449266e+003,8.633495e+001
1.452159e+003,8.531480e+001
1.455051e+003,8.405276e+001
1.457944e+003,8.178761e+001
1.460837e+003,8.058340e+001
1.463730e+003,7.923065e+001
1.466622e+003,7.945130e+001
1.469515e+003,7.634246e+001
1.472408e+003,7.856476e+001
1.475301e+003,8.195137e+001
1.478193e+003,8.296466e+001
1.481086e+003,8.731731e+001
1.483979e+003,9.090186e+001
1.486872e+003,9.259422e+001
1.489764e+003,9.341385e+001
1.492657e+003,9.363934e+001
1.495550e+003,9.382326e+001
1.498443e+003,9.395811e+001
1.501335e+003,9.381500e+001
1.504228e+003,9.382262e+001
1.507121e+003,9.443818e+001
1.510014e+003,9.396252e+001
1.512906e+003,9.390070e+001
1.515799e+003,9.410865e+001
1.518692e+003,9.417401e+001
1.521584e+003,9.436168e+001
1.524477e+003,9.431745e+001
1.527370e+003,9.439012e+001
1.530263e+003,9.433983e+001
1.533156e+003,9.440067e+001
1.536048e+003,9.436547e+001
1.538941e+003,9.437904e+001
1.541834e+003,9.455797e+001
1.544726e+003,9.436312e+001
1.547619e+003,9.433247e+001
1.550512e+003,9.448563e+001
1.553405e+003,9.435169e+001
1.556297e+003,9.445467e+001
1.559190e+003,9.530565e+001
1.562083e+003,9.432506e+001
1.564976e+003,9.433519e+001
1.567869e+003,9.423443e+001
1.570761e+003,9.414249e+001
1.573654e+003,9.396785e+001
1.576547e+003,9.407467e+001
1.579439e+003,9.377806e+001
1.582332e+003,9.370680e+001
1.585225e+003,9.371179e+001
1.588118e+003,9.366106e+001
1.591010e+003,9.357267e+001
1.593903e+003,9.344695e+001
1.596796e+003,9.329206e+001
1.599689e+003,9.311463e+001
1.602581e+003,9.302199e+001
1.605474e+003,9.286430e+001
1.608367e+003,9.275559e+001
1.611260e+003,9.253532e+001
1.614152e+003,9.243119e+001
1.617045e+003,9.257759e+001
1.619938e+003,9.207299e+001
1.622831e+003,9.202083e+001
1.625723e+003,9.180400e+001
1.628616e+003,9.162610e+001
1.631509e+003,9.138947e+001
1.634402e+003,9.129455e+001
1.637294e+003,9.138904e+001
1.640187e+003,9.113311e+001
1.643080e+003,9.108890e+001
1.645973e+003,9.100077e+001
1.648865e+003,9.087992e+001
1.651758e+003,9.060195e+001
1.654651e+003,9.051717e+001
1.657544e+003,8.988082e+001
1.660436e+003,8.944158e+001
1.663329e+003,8.894192e+001
1.666222e+003,8.819453e+001
1.669115e+003,8.746489e+001
1.672007e+003,8.626166e+001
1.674900e+003,8.497712e+001
1.677793e+003,8.320188e+001
1.680686e+003,8.105991e+001
1.683578e+003,7.910101e+001
1.686471e+003,7.705412e+001
1.689364e+003,7.522521e+001
1.692257e+003,7.365025e+001
1.695149e+003,7.191058e+001
1.698042e+003,6.968753e+001
1.700935e+003,6.688997e+001
1.703828e+003,6.358221e+001
1.706720e+003,5.873570e+001
1.709613e+003,5.249533e+001
1.712506e+003,4.413975e+001
1.715399e+003,3.381406e+001
1.718291e+003,2.460470e+001
1.721184e+003,2.161323e+001
1.724077e+003,2.616289e+001
1.726969e+003,3.422821e+001
1.729862e+003,4.108233e+001
1.732755e+003,4.576117e+001
1.735648e+003,5.391070e+001
1.738541e+003,6.005663e+001
1.741433e+003,6.881489e+001
1.744326e+003,7.732712e+001
1.747219e+003,8.371416e+001
1.750111e+003,8.811470e+001
1.753004e+003,9.097092e+001
1.755897e+003,9.236122e+001
1.758790e+003,9.327465e+001
1.761682e+003,9.406557e+001
1.764575e+003,9.430325e+001
1.767468e+003,9.474326e+001
1.770361e+003,9.496691e+001
1.773253e+003,9.547136e+001
1.776146e+003,9.567189e+001
1.779039e+003,9.584235e+001
1.781932e+003,9.620086e+001
1.784824e+003,9.642345e+001
1.787717e+003,9.657669e+001
1.790610e+003,9.682670e+001
1.793503e+003,9.710154e+001
1.796395e+003,9.716341e+001
1.799288e+003,9.733891e+001
1.802181e+003,9.750319e+001
1.805074e+003,9.758662e+001
1.807966e+003,9.763931e+001
1.810859e+003,9.781378e+001
1.813752e+003,9.787946e+001
1.816645e+003,9.806159e+001
1.819537e+003,9.794333e+001
1.822430e+003,9.797614e+001
1.825323e+003,9.803467e+001
1.828216e+003,9.813333e+001
1.831108e+003,9.814734e+001
1.834001e+003,9.816823e+001
1.836894e+003,9.816634e+001
1.839787e+003,9.810603e+001
1.842679e+003,9.827383e+001
1.845572e+003,9.828278e+001
1.848465e+003,9.824625e+001
1.851358e+003,9.832171e+001
1.854250e+003,9.838213e+001
1.857143e+003,9.848087e+001
1.860036e+003,9.848777e+001
1.862929e+003,9.855462e+001
1.865821e+003,9.848007e+001
1.868714e+003,9.838748e+001
1.871607e+003,9.843052e+001
1.874500e+003,9.842505e+001
1.877392e+003,9.846518e+001
1.880285e+003,9.844237e+001
1.883178e+003,9.837379e+001
1.886071e+003,9.837830e+001
1.888963e+003,9.854044e+001
1.891856e+003,9.845959e+001
1.894749e+003,9.850777e+001
1.897642e+003,9.855203e+001
1.900534e+003,9.836094e+001
1.903427e+003,9.848808e+001
1.906320e+003,9.843568e+001
1.909213e+003,9.836859e+001
1.912105e+003,9.830316e+001
1.914998e+003,9.841073e+001
1.917891e+003,9.828408e+001
1.920784e+003,9.831499e+001
1.923676e+003,9.849374e+001
1.926569e+003,9.831886e+001
1.929462e+003,9.852634e+001
1.932354e+003,9.843567e+001
1.935247e+003,9.849560e+001
1.938140e+003,9.856321e+001
1.941033e+003,9.844553e+001
1.943926e+003,9.842307e+001
1.946818e+003,9.846011e+001
1.949711e+003,9.844859e+001
1.952604e+003,9.845231e+001
1.955496e+003,9.867161e+001
1.958389e+003,9.872653e+001
1.961282e+003,9.844146e+001
1.964175e+003,9.852882e+001
1.967068e+003,9.830572e+001
1.969960e+003,9.876111e+001
1.972853e+003,9.857765e+001
1.975746e+003,9.867841e+001
1.978638e+003,9.791763e+001
1.981531e+003,9.823501e+001
1.984424e+003,9.817332e+001
1.987317e+003,9.836372e+001
1.990209e+003,9.849226e+001
1.993102e+003,9.862154e+001
1.995995e+003,9.867965e+001
1.998888e+003,9.842759e+001
2.001780e+003,9.855066e+001
2.004673e+003,9.876645e+001
2.007566e+003,9.830370e+001
2.010459e+003,9.832742e+001
2.013351e+003,9.838931e+001
2.016244e+003,9.847582e+001
2.019137e+003,9.862631e+001
2.022030e+003,9.840586e+001
2.024922e+003,9.854108e+001
2.027815e+003,9.823054e+001
2.030708e+003,9.830568e+001
2.033601e+003,9.834380e+001
2.036493e+003,9.852670e+001
2.039386e+003,9.821446e+001
2.042279e+003,9.810411e+001
2.045172e+003,9.829664e+001
2.048064e+003,9.806631e+001
2.050957e+003,9.800545e+001
2.053850e+003,9.846923e+001
2.056743e+003,9.824139e+001
2.059635e+003,9.848991e+001
2.062528e+003,9.833981e+001
2.065421e+003,9.837052e+001
2.068314e+003,9.842509e+001
2.071206e+003,9.806936e+001
2.074099e+003,9.810329e+001
2.076992e+003,9.823253e+001
2.079885e+003,9.810023e+001
2.082777e+003,9.818536e+001
2.085670e+003,9.809000e+001
2.088563e+003,9.827043e+001
2.091456e+003,9.823257e+001
2.094348e+003,9.820000e+001
2.097241e+003,9.797266e+001
2.100134e+003,9.803579e+001
2.103027e+003,9.807189e+001
2.105919e+003,9.809874e+001
2.108812e+003,9.821576e+001
2.111705e+003,9.813299e+001
2.114598e+003,9.820287e+001
2.117490e+003,9.828422e+001
2.120383e+003,9.855468e+001
2.123276e+003,9.840825e+001
2.126168e+003,9.853201e+001
2.129061e+003,9.862603e+001
2.131954e+003,9.890357e+001
2.134847e+003,9.872289e+001
2.137740e+003,9.840901e+001
2.140632e+003,9.872880e+001
2.143525e+003,9.879996e+001
2.146418e+003,9.883759e+001
2.149311e+003,9.856500e+001
2.152203e+003,9.880813e+001
2.155096e+003,9.874173e+001
2.157989e+003,9.908371e+001
2.160882e+003,9.788911e+001
2.163774e+003,9.792730e+001
2.166667e+003,9.840926e+001
2.169560e+003,9.824612e+001
2.172452e+003,9.831487e+001
2.175345e+003,9.836520e+001
2.178238e+003,9.869881e+001
2.181131e+003,9.850531e+001
2.184023e+003,9.850600e+001
2.186916e+003,9.847327e+001
2.189809e+003,9.835680e+001
2.192702e+003,9.848286e+001
2.195594e+003,9.857694e+001
2.198487e+003,9.835184e+001
2.201380e+003,9.839615e+001
2.204273e+003,9.860765e+001
2.207166e+003,9.845453e+001
2.210058e+003,9.840794e+001
2.212951e+003,9.864739e+001
2.215844e+003,9.838746e+001
2.218736e+003,9.846847e+001
2.221629e+003,9.832893e+001
2.224522e+003,9.848812e+001
2.227415e+003,9.858419e+001
2.230307e+003,9.869740e+001
2.233200e+003,9.853935e+001
2.236093e+003,9.831139e+001
2.238986e+003,9.838718e+001
2.241878e+003,9.842943e+001
2.244771e+003,9.848845e+001
2.247664e+003,9.841066e+001
2.250557e+003,9.835267e+001
2.253449e+003,9.835550e+001
2.256342e+003,9.828394e+001
2.259235e+003,9.838126e+001
2.262128e+003,9.816675e+001
2.265020e+003,9.825084e+001
2.267913e+003,9.809370e+001
2.270806e+003,9.816315e+001
2.273699e+003,9.822210e+001
2.276591e+003,9.808899e+001
2.279484e+003,9.812111e+001
2.282377e+003,9.796770e+001
2.285270e+003,9.795511e+001
2.288162e+003,9.796463e+001
2.291055e+003,9.768961e+001
2.293948e+003,9.763618e+001
2.296841e+003,9.735257e+001
2.299733e+003,9.718461e+001
2.302626e+003,9.697185e+001
2.305519e+003,9.666011e+001
2.308412e+003,9.608843e+001
2.311304e+003,9.576048e+001
2.314197e+003,9.549486e+001
2.317090e+003,9.481369e+001
2.319983e+003,9.419699e+001
2.322875e+003,9.332689e+001
2.325768e+003,9.337582e+001
2.328661e+003,9.301220e+001
2.331553e+003,9.255455e+001
2.334446e+003,9.260223e+001
2.337339e+003,9.234679e+001
2.340232e+003,9.193065e+001
2.343125e+003,9.186738e+001
2.346017e+003,9.275577e+001
2.348910e+003,9.449385e+001
2.351803e+003,9.248825e+001
2.354696e+003,9.112641e+001
2.357588e+003,8.985105e+001
2.360481e+003,9.021280e+001
2.363374e+003,9.022045e+001
2.366267e+003,9.149155e+001
2.369159e+003,9.236596e+001
2.372052e+003,9.385233e+001
2.374945e+003,9.499854e+001
2.377837e+003,9.618537e+001
2.380730e+003,9.711212e+001
2.383623e+003,9.801703e+001
2.386516e+003,9.830576e+001
2.389408e+003,9.854086e+001
2.392301e+003,9.850146e+001
2.395194e+003,9.845566e+001
2.398087e+003,9.841737e+001
2.400979e+003,9.838400e+001
2.403872e+003,9.843193e+001
2.406765e+003,9.832907e+001
2.409658e+003,9.832475e+001
2.412551e+003,9.827491e+001
2.415443e+003,9.831645e+001
2.418336e+003,9.828041e+001
2.421229e+003,9.833937e+001
2.424121e+003,9.842205e+001
2.427014e+003,9.840369e+001
2.429907e+003,9.844978e+001
2.432800e+003,9.833806e+001
2.435692e+003,9.843069e+001
2.438585e+003,9.837941e+001
2.441478e+003,9.832987e+001
2.444371e+003,9.835880e+001
2.447263e+003,9.839686e+001
2.450156e+003,9.836413e+001
2.453049e+003,9.841026e+001
2.455942e+003,9.828328e+001
2.458834e+003,9.833727e+001
2.461727e+003,9.838639e+001
2.464620e+003,9.833129e+001
2.467513e+003,9.836160e+001
2.470405e+003,9.836337e+001
2.473298e+003,9.836809e+001
2.476191e+003,9.830443e+001
2.479084e+003,9.836768e+001
2.481976e+003,9.829716e+001
2.484869e+003,9.833687e+001
2.487762e+003,9.837914e+001
2.490655e+003,9.837547e+001
2.493547e+003,9.835127e+001
2.496440e+003,9.828152e+001
2.499333e+003,9.829805e+001
2.502226e+003,9.835568e+001
2.505118e+003,9.839902e+001
2.508011e+003,9.837503e+001
2.510904e+003,9.831110e+001
2.513797e+003,9.824400e+001
2.516689e+003,9.829462e+001
2.519582e+003,9.837716e+001
2.522475e+003,9.832296e+001
2.525368e+003,9.821822e+001
2.528260e+003,9.828936e+001
2.531153e+003,9.813924e+001
2.534046e+003,9.817390e+001
2.536938e+003,9.817731e+001
2.539831e+003,9.815118e+001
2.542724e+003,9.821082e+001
2.545617e+003,9.814863e+001
2.548510e+003,9.821542e+001
2.551402e+003,9.820898e+001
2.554295e+003,9.823528e+001
2.557188e+003,9.817628e+001
2.560081e+003,9.821425e+001
2.562973e+003,9.810313e+001
2.565866e+003,9.812409e+001
2.568759e+003,9.816074e+001
2.571652e+003,9.809837e+001
2.574544e+003,9.811276e+001
2.577437e+003,9.794225e+001
2.580330e+003,9.803167e+001
2.583222e+003,9.808133e+001
2.586115e+003,9.802248e+001
2.589008e+003,9.804121e+001
2.591901e+003,9.807932e+001
2.594793e+003,9.806789e+001
2.597686e+003,9.795473e+001
2.600579e+003,9.803611e+001
2.603472e+003,9.800228e+001
2.606365e+003,9.797396e+001
2.609257e+003,9.801263e+001
2.612150e+003,9.792976e+001
2.615043e+003,9.791563e+001
2.617936e+003,9.792680e+001
2.620828e+003,9.792212e+001
2.623721e+003,9.797335e+001
2.626614e+003,9.782838e+001
2.629506e+003,9.781422e+001
2.632399e+003,9.790717e+001
2.635292e+003,9.779691e+001
2.638185e+003,9.784389e+001
2.641077e+003,9.782996e+001
2.643970e+003,9.776440e+001
2.646863e+003,9.777008e+001
2.649756e+003,9.770142e+001
2.652648e+003,9.776817e+001
2.655541e+003,9.774561e+001
2.658434e+003,9.773496e+001
2.661327e+003,9.774473e+001
2.664219e+003,9.777905e+001
2.667112e+003,9.785068e+001
2.670005e+003,9.782224e+001
2.672898e+003,9.779389e+001
2.675790e+003,9.777778e+001
2.678683e+003,9.776282e+001
2.681576e+003,9.775410e+001
2.684469e+003,9.775134e+001
2.687361e+003,9.766182e+001
2.690254e+003,9.771741e+001
2.693147e+003,9.771758e+001
2.696040e+003,9.769473e+001
2.698932e+003,9.767655e+001
2.701825e+003,9.774646e+001
2.704718e+003,9.767850e+001
2.707611e+003,9.761727e+001
2.710503e+003,9.766242e+001
2.713396e+003,9.766122e+001
2.716289e+003,9.763496e+001
2.719182e+003,9.762659e+001
2.722074e+003,9.762764e+001
2.724967e+003,9.761008e+001
2.727860e+003,9.757011e+001
2.730753e+003,9.760485e+001
2.733645e+003,9.754637e+001
2.736538e+003,9.752528e+001
2.739431e+003,9.756922e+001
2.742323e+003,9.751559e+001
2.745216e+003,9.746480e+001
2.748109e+003,9.737914e+001
2.751002e+003,9.737738e+001
2.753895e+003,9.736884e+001
2.756787e+003,9.734876e+001
2.759680e+003,9.738300e+001
2.762573e+003,9.735133e+001
2.765466e+003,9.726704e+001
2.768358e+003,9.719608e+001
2.771251e+003,9.725271e+001
2.774144e+003,9.715620e+001
2.777037e+003,9.721054e+001
2.779929e+003,9.715858e+001
2.782822e+003,9.711797e+001
2.785715e+003,9.707970e+001
2.788607e+003,9.706071e+001
2.791500e+003,9.701767e+001
2.794393e+003,9.698076e+001
2.797286e+003,9.686063e+001
2.800178e+003,9.682774e+001
2.803071e+003,9.672099e+001
2.805964e+003,9.661562e+001
2.808857e+003,9.650943e+001
2.811750e+003,9.632080e+001
2.814642e+003,9.615210e+001
2.817535e+003,9.592566e+001
2.820428e+003,9.580708e+001
2.823321e+003,9.559306e+001
2.826213e+003,9.537335e+001
2.829106e+003,9.516276e+001
2.831999e+003,9.495664e+001
2.834891e+003,9.460966e+001
2.837784e+003,9.407123e+001
2.840677e+003,9.329329e+001
2.843570e+003,9.232899e+001
2.846462e+003,9.101575e+001
2.849355e+003,8.922350e+001
2.852248e+003,8.746835e+001
2.855141e+003,8.571002e+001
2.858033e+003,8.403578e+001
2.860926e+003,8.241221e+001
2.863819e+003,8.136385e+001
2.866712e+003,8.130724e+001
2.869604e+003,8.236079e+001
2.872497e+003,8.421406e+001
2.875390e+003,8.624355e+001
2.878283e+003,8.768513e+001
2.881175e+003,8.839521e+001
2.884068e+003,8.851211e+001
2.886961e+003,8.778950e+001
2.889854e+003,8.652886e+001
2.892746e+003,8.514107e+001
2.895639e+003,8.475062e+001
2.898532e+003,8.519301e+001
2.901425e+003,8.520503e+001
2.904317e+003,8.462793e+001
2.907210e+003,8.377447e+001
2.910103e+003,8.289698e+001
2.912996e+003,8.200215e+001
2.915888e+003,8.099685e+001
2.918781e+003,7.981094e+001
2.921674e+003,7.862209e+001
2.924567e+003,7.770872e+001
2.927459e+003,7.688118e+001
2.930352e+003,7.617658e+001
2.933245e+003,7.516222e+001
2.936137e+003,7.441583e+001
2.939030e+003,7.406313e+001
2.941923e+003,7.373108e+001
2.944816e+003,7.376728e+001
2.947708e+003,7.443927e+001
2.950601e+003,7.562996e+001
2.953494e+003,7.691774e+001
2.956387e+003,7.834547e+001
2.959280e+003,8.036439e+001
2.962172e+003,8.283429e+001
2.965065e+003,8.487009e+001
2.967958e+003,8.678806e+001
2.970851e+003,8.856129e+001
2.973743e+003,9.019191e+001
2.976636e+003,9.159869e+001
2.979529e+003,9.269794e+001
2.982422e+003,9.359572e+001
2.985314e+003,9.429264e+001
2.988207e+003,9.491211e+001
2.991100e+003,9.534953e+001
2.993992e+003,9.580794e+001
2.996885e+003,9.606594e+001
2.999778e+003,9.622752e+001
3.002671e+003,9.652262e+001
3.005563e+003,9.661952e+001
3.008456e+003,9.678151e+001
3.011349e+003,9.694373e+001
3.014242e+003,9.696060e+001
3.017135e+003,9.693498e+001
3.020027e+003,9.694852e+001
3.022920e+003,9.715186e+001
3.025813e+003,9.707346e+001
3.028706e+003,9.717092e+001
3.031598e+003,9.710751e+001
3.034491e+003,9.724875e+001
3.037384e+003,9.724702e+001
3.040276e+003,9.721130e+001
3.043169e+003,9.713390e+001
3.046062e+003,9.708717e+001
3.048955e+003,9.730661e+001
3.051847e+003,9.719717e+001
3.054740e+003,9.721245e+001
3.057633e+003,9.717455e+001
3.060526e+003,9.723301e+001
3.063418e+003,9.710433e+001
3.066311e+003,9.717683e+001
3.069204e+003,9.725202e+001
3.072097e+003,9.724956e+001
3.074990e+003,9.721342e+001
3.077882e+003,9.716885e+001
3.080775e+003,9.724639e+001
3.083668e+003,9.717366e+001
3.086560e+003,9.722146e+001
3.089453e+003,9.720164e+001
3.092346e+003,9.721829e+001
3.095239e+003,9.717030e+001
3.098131e+003,9.727547e+001
3.101024e+003,9.716096e+001
3.103917e+003,9.722817e+001
3.106810e+003,9.716847e+001
3.109702e+003,9.711697e+001
3.112595e+003,9.716748e+001
3.115488e+003,9.719443e+001
3.118381e+003,9.713013e+001
3.121273e+003,9.710733e+001
3.124166e+003,9.720928e+001
3.127059e+003,9.714008e+001
3.129952e+003,9.723913e+001
3.132844e+003,9.715599e+001
3.135737e+003,9.711358e+001
3.138630e+003,9.714300e+001
3.141522e+003,9.711526e+001
3.144415e+003,9.714965e+001
3.147308e+003,9.711927e+001
3.150201e+003,9.717463e+001
3.153094e+003,9.704985e+001
3.155986e+003,9.711841e+001
3.158879e+003,9.719102e+001
3.161772e+003,9.714260e+001
3.164665e+003,9.707066e+001
3.167557e+003,9.717728e+001
3.170450e+003,9.706422e+001
3.173343e+003,9.722678e+001
3.176236e+003,9.697624e+001
3.179128e+003,9.708858e+001
3.182021e+003,9.708347e+001
3.184914e+003,9.709030e+001
3.187806e+003,9.714410e+001
3.190699e+003,9.715536e+001
3.193592e+003,9.704963e+001
3.196485e+003,9.703741e+001
3.199377e+003,9.705498e+001
3.202270e+003,9.712543e+001
3.205163e+003,9.697530e+001
3.208056e+003,9.713699e+001
3.210948e+003,9.707120e+001
3.213841e+003,9.715276e+001
3.216734e+003,9.714150e+001
3.219627e+003,9.705740e+001
3.222520e+003,9.696970e+001
3.225412e+003,9.704222e+001
3.228305e+003,9.701328e+001
3.231198e+003,9.707454e+001
3.234091e+003,9.713673e+001
3.236983e+003,9.711765e+001
3.239876e+003,9.704751e+001
3.242769e+003,9.714407e+001
3.245661e+003,9.709217e+001
3.248554e+003,9.715635e+001
3.251447e+003,9.695586e+001
3.254340e+003,9.701349e+001
3.257232e+003,9.697664e+001
3.260125e+003,9.704153e+001
3.263018e+003,9.700412e+001
3.265911e+003,9.696092e+001
3.268803e+003,9.713641e+001
3.271696e+003,9.703090e+001
3.274589e+003,9.711283e+001
3.277482e+003,9.696179e+001
3.280375e+003,9.713223e+001
3.283267e+003,9.701384e+001
3.286160e+003,9.698512e+001
3.289053e+003,9.695961e+001
3.291945e+003,9.699267e+001
3.294838e+003,9.699516e+001
3.297731e+003,9.703575e+001
3.300624e+003,9.705440e+001
3.303516e+003,9.700652e+001
3.306409e+003,9.710285e+001
3.309302e+003,9.696151e+001
3.312195e+003,9.706116e+001
3.315087e+003,9.708057e+001
3.317980e+003,9.699151e+001
3.320873e+003,9.707660e+001
3.323766e+003,9.706073e+001
3.326658e+003,9.707770e+001
3.329551e+003,9.708121e+001
3.332444e+003,9.705045e+001
3.335337e+003,9.699375e+001
3.338229e+003,9.712106e+001
3.341122e+003,9.702900e+001
3.344015e+003,9.704472e+001
3.346907e+003,9.715137e+001
3.349800e+003,9.695363e+001
3.352693e+003,9.700900e+001
3.355586e+003,9.708672e+001
3.358479e+003,9.704063e+001
3.361371e+003,9.703613e+001
3.364264e+003,9.700916e+001
3.367157e+003,9.712102e+001
3.370050e+003,9.707993e+001
3.372942e+003,9.710213e+001
3.375835e+003,9.709386e+001
3.378728e+003,9.717155e+001
3.381621e+003,9.712748e+001
3.384513e+003,9.707185e+001
3.387406e+003,9.714156e+001
3.390299e+003,9.706818e+001
3.393191e+003,9.716311e+001
3.396084e+003,9.712708e+001
3.398977e+003,9.713280e+001
3.401870e+003,9.708023e+001
3.404762e+003,9.709655e+001
3.407655e+003,9.722900e+001
3.410548e+003,9.722479e+001
3.413441e+003,9.699271e+001
3.416333e+003,9.707645e+001
3.419226e+003,9.713692e+001
3.422119e+003,9.710518e+001
3.425012e+003,9.694720e+001
3.427905e+003,9.690473e+001
3.430797e+003,9.676241e+001
3.433690e+003,9.664510e+001
3.436583e+003,9.659921e+001
3.439475e+003,9.659086e+001
3.442368e+003,9.669932e+001
3.445261e+003,9.675742e+001
3.448154e+003,9.685265e+001
3.451046e+003,9.695359e+001
3.453939e+003,9.708164e+001
3.456832e+003,9.699317e+001
3.459725e+003,9.705843e+001
3.462617e+003,9.722379e+001
3.465510e+003,9.728462e+001
3.468403e+003,9.727379e+001
3.471296e+003,9.729847e+001
3.474188e+003,9.740212e+001
3.477081e+003,9.757002e+001
3.479974e+003,9.742658e+001
3.482867e+003,9.760659e+001
3.485760e+003,9.753864e+001
3.488652e+003,9.754225e+001
3.491545e+003,9.762909e+001
3.494438e+003,9.748866e+001
3.497330e+003,9.748040e+001
3.500223e+003,9.763110e+001
3.503116e+003,9.753119e+001
3.506009e+003,9.768806e+001
3.508901e+003,9.764146e+001
3.511794e+003,9.770848e+001
3.514687e+003,9.782076e+001
3.517580e+003,9.778344e+001
3.520472e+003,9.777831e+001
3.523365e+003,9.772790e+001
3.526258e+003,9.772995e+001
3.529151e+003,9.769952e+001
3.532043e+003,9.777626e+001
3.534936e+003,9.781906e+001
3.537829e+003,9.777477e+001
3.540722e+003,9.783640e+001
3.543614e+003,9.772727e+001
3.546507e+003,9.780383e+001
3.549400e+003,9.788259e+001
3.552292e+003,9.790636e+001
3.555185e+003,9.792161e+001
3.558078e+003,9.798492e+001
3.560971e+003,9.795281e+001
3.563864e+003,9.805701e+001
3.566756e+003,9.813908e+001
3.569649e+003,9.807626e+001
3.572542e+003,9.805672e+001
3.575435e+003,9.831146e+001
3.578327e+003,9.815279e+001
3.581220e+003,9.820301e+001
3.584113e+003,9.813926e+001
3.587006e+003,9.829961e+001
3.589898e+003,9.823403e+001
3.592791e+003,9.814372e+001
3.595684e+003,9.819760e+001
3.598576e+003,9.810370e+001
3.601469e+003,9.810046e+001
3.604362e+003,9.807275e+001
3.607255e+003,9.809525e+001
3.610147e+003,9.834362e+001
3.613040e+003,9.844762e+001
3.615933e+003,9.829427e+001
3.618826e+003,9.847884e+001
3.621719e+003,9.819594e+001
3.624611e+003,9.836596e+001
3.627504e+003,9.841647e+001
3.630397e+003,9.816411e+001
3.633290e+003,9.825307e+001
3.636182e+003,9.837034e+001
3.639075e+003,9.848977e+001
3.641968e+003,9.869018e+001
3.644860e+003,9.870657e+001
3.647753e+003,9.881940e+001
3.650646e+003,9.896384e+001
3.653539e+003,9.885465e+001
3.656431e+003,9.900681e+001
3.659324e+003,9.882582e+001
3.662217e+003,9.891977e+001
3.665110e+003,9.889447e+001
3.668002e+003,9.886908e+001
3.670895e+003,9.908688e+001
3.673788e+003,9.890264e+001
3.676681e+003,9.916633e+001
3.679573e+003,9.890220e+001
3.682466e+003,9.880386e+001
3.685359e+003,9.890167e+001
3.688252e+003,9.921337e+001
3.691145e+003,9.904130e+001
3.694037e+003,9.887124e+001
3.696930e+003,9.868980e+001
3.699823e+003,9.870499e+001
3.702715e+003,9.882257e+001
3.705608e+003,9.870779e+001
3.708501e+003,9.871867e+001
3.711394e+003,9.893763e+001
3.714286e+003,9.891070e+001
3.717179e+003,9.893792e+001
3.720072e+003,9.887228e+001
3.722965e+003,9.861568e+001
3.725857e+003,9.864738e+001
3.728750e+003,9.861185e+001
3.731643e+003,9.901167e+001
3.734536e+003,9.823504e+001
3.737428e+003,9.884155e+001
3.740321e+003,9.909748e+001
3.743214e+003,9.887646e+001
3.746107e+003,9.907622e+001
3.748999e+003,9.894012e+001
3.751892e+003,9.921970e+001
3.754785e+003,9.902387e+001
3.757677e+003,9.912279e+001
3.760570e+003,9.920673e+001
3.763463e+003,9.899043e+001
3.766356e+003,9.912993e+001
3.769249e+003,9.914411e+001
3.772141e+003,9.906664e+001
3.775034e+003,9.915081e+001
3.777927e+003,9.913567e+001
3.780820e+003,9.912215e+001
3.783712e+003,9.913419e+001
3.786605e+003,9.905667e+001
3.789498e+003,9.915675e+001
3.792391e+003,9.905746e+001
3.795283e+003,9.904436e+001
3.798176e+003,9.914724e+001
3.801069e+003,9.921933e+001
3.803961e+003,9.921100e+001
3.806854e+003,9.934839e+001
3.809747e+003,9.909894e+001
3.812640e+003,9.910638e+001
3.815532e+003,9.946494e+001
3.818425e+003,9.913689e+001
3.821318e+003,9.921169e+001
3.824211e+003,9.913813e+001
3.827104e+003,9.920294e+001
3.829996e+003,9.908170e+001
3.832889e+003,9.907358e+001
3.835782e+003,9.903455e+001
3.838675e+003,9.916579e+001
3.841567e+003,9.914745e+001
3.844460e+003,9.915195e+001
3.847353e+003,9.898110e+001
3.850245e+003,9.909697e+001
3.853138e+003,9.923138e+001
3.856031e+003,9.894165e+001
3.858924e+003,9.900662e+001
3.861816e+003,9.903087e+001
3.864709e+003,9.917398e+001
3.867602e+003,9.919623e+001
3.870495e+003,9.929707e+001
3.873387e+003,9.903699e+001
3.876280e+003,9.891587e+001
3.879173e+003,9.900580e+001
3.882066e+003,9.911629e+001
3.884958e+003,9.911593e+001
3.887851e+003,9.903730e+001
3.890744e+003,9.891367e+001
3.893637e+003,9.900051e+001
3.896529e+003,9.901959e+001
3.899422e+003,9.903129e+001
3.902315e+003,9.887729e+001
3.905208e+003,9.922118e+001
3.908100e+003,9.901044e+001
3.910993e+003,9.914656e+001
3.913886e+003,9.906337e+001
3.916779e+003,9.902930e+001
3.919671e+003,9.914243e+001
3.922564e+003,9.907150e+001
3.925457e+003,9.914463e+001
3.928350e+003,9.907163e+001
3.931242e+003,9.905626e+001
3.934135e+003,9.897833e+001
3.937028e+003,9.906058e+001
3.939921e+003,9.914614e+001
3.942813e+003,9.913206e+001
3.945706e+003,9.905206e+001
3.948599e+003,9.902728e+001
3.951492e+003,9.908620e+001
3.954384e+003,9.909542e+001
3.957277e+003,9.908262e+001
3.960170e+003,9.893163e+001
3.963063e+003,9.906878e+001
3.965955e+003,9.895267e+001
3.968848e+003,9.905360e+001
3.971741e+003,9.900890e+001
3.974634e+003,9.910961e+001
3.977526e+003,9.911276e+001
3.980419e+003,9.898266e+001
3.983312e+003,9.901659e+001
3.986205e+003,9.911595e+001
3.989097e+003,9.907116e+001
3.991990e+003,9.899273e+001
3.994883e+003,9.901149e+001
3.997776e+003,9.898251e+001
4.000668e+003,0.000000e+000