File: FTIR Data (PCL)/PCL.CSV
3.991989e+002,0.000000e+000
4.020916e+002,0.000000e+000
4.049844e+002,0.000000e+000
4.078771e+002,0.000000e+000
4.107699e+002,0.000000e+000
4.136626e+002,0.000000e+000
4.165554e+002,0.000000e+000
4.194481e+002,0.000000e+000
4.223409e+002,0.000000e+000
4.252336e+002,0.000000e+000
4.281263e+002,0.000000e+000
4.310191e+002,0.000000e+000
4.339118e+002,0.000000e+000
4.368046e+002,0.000000e+000
4.396973e+002,0.000000e+000
4.425901e+002,0.000000e+000
4.454828e+002,0.000000e+000
4.483756e+002,0.000000e+000
4.512683e+002,0.000000e+000
4.541611e+002,0.000000e+000
4.570538e+002,0.000000e+000
4.599466e+002,0.000000e+000
4.628393e+002,0.000000e+000
4.657321e+002,0.000000e+000
4.686248e+002,0.000000e+000
4.715175e+002,0.000000e+000
4.744103e+002,0.000000e+000
4.773030e+002,0.000000e+000
4.801958e+002,0.000000e+000
4.830885e+002,0.000000e+000
4.859813e+002,0.000000e+000
4.888740e+002,0.000000e+000
4.917668e+002,0.000000e+000
4.946595e+002,0.000000e+000
4.975523e+002,0.000000e+000
5.004450e+002,0.000000e+000
5.033378e+002,0.000000e+000
5.062305e+002,0.000000e+000
5.091233e+002,0.000000e+000
5.120160e+002,0.000000e+000
5.149088e+002,0.000000e+000
5.178015e+002,0.000000e+000
5.206942e+002,0.000000e+000
5.235870e+002,0.000000e+000
5.264797e+002,0.000000e+000
5.293725e+002,0.000000e+000
5.322652e+002,0.000000e+000
5.351580e+002,0.000000e+000
5.380507e+002,0.000000e+000
5.409435e+002,0.000000e+000
5.438362e+002,0.000000e+000
5.467289e+002,0.000000e+000
5.496217e+002,8.590006e+001
5.525145e+002,8.393533e+001
5.554072e+002,8.892719e+001
5.582999e+002,8.455191e+001
5.611927e+002,8.513776e+001
5.640854e+002,8.500455e+001
5.669782e+002,8.174911e+001
5.698709e+002,8.121112e+001
5.727637e+002,8.137497e+001
5.756564e+002,7.674379e+001
5.785492e+002,7.863599e+001
5.814419e+002,7.768845e+001
5.843347e+002,7.701633e+001
5.872274e+002,7.753244e+001
5.901202e+002,7.996688e+001
5.930129e+002,8.178992e+001
5.959056e+002,8.270050e+001
5.987984e+002,8.415446e+001
6.016912e+002,8.468502e+001
6.045839e+002,8.494144e+001
6.074766e+002,8.530186e+001
6.103694e+002,8.465293e+001
6.132621e+002,8.571818e+001
6.161548e+002,8.559404e+001
6.190476e+002,8.677339e+001
6.219404e+002,8.636160e+001
6.248331e+002,8.550982e+001
6.277258e+002,8.611756e+001
6.306186e+002,8.600819e+001
6.335114e+002,8.626904e+001
6.364041e+002,8.621146e+001
6.392968e+002,8.612024e+001
6.421896e+002,8.607640e+001
6.450823e+002,8.589011e+001
6.479751e+002,8.588872e+001
6.508679e+002,8.601864e+001
6.537606e+002,8.630766e+001
6.566533e+002,8.664298e+001
6.595461e+002,8.633099e+001
6.624388e+002,8.612372e+001
6.653315e+002,8.621380e+001
6.682243e+002,8.654975e+001
6.711171e+002,8.605024e+001
6.740098e+002,8.600566e+001
6.769025e+002,8.545256e+001
6.797953e+002,8.519042e+001
6.826880e+002,8.477840e+001
6.855808e+002,8.418115e+001
6.884735e+002,8.329774e+001
6.913663e+002,8.252860e+001
6.942590e+002,8.145152e+001
6.971518e+002,8.007860e+001
7.000445e+002,7.844484e+001
7.029373e+002,7.629675e+001
7.058300e+002,7.390073e+001
7.087228e+002,7.226474e+001
7.116155e+002,7.278466e+001
7.145082e+002,7.461808e+001
7.174010e+002,7.536193e+001
7.202938e+002,7.432228e+001
7.231865e+002,6.905131e+001
7.260792e+002,6.097976e+001
7.289720e+002,5.844376e+001
7.318647e+002,5.515857e+001
7.347575e+002,6.281261e+001
7.376502e+002,7.122418e+001
7.405430e+002,7.711144e+001
7.434357e+002,8.099934e+001
7.463285e+002,8.353487e+001
7.492212e+002,8.504888e+001
7.521140e+002,8.614556e+001
7.550067e+002,8.692596e+001
7.578995e+002,8.751614e+001
7.607922e+002,8.762878e+001
7.636849e+002,8.710959e+001
7.665777e+002,8.627692e+001
7.694705e+002,8.540854e+001
7.723632e+002,8.474744e+001
7.752559e+002,8.517463e+001
7.781487e+002,8.609087e+001
7.810414e+002,8.681481e+001
7.839341e+002,8.730666e+001
7.868269e+002,8.749049e+001
7.897197e+002,8.758809e+001
7.926124e+002,8.770381e+001
7.955051e+002,8.764791e+001
7.983979e+002,8.760466e+001
8.012906e+002,8.741013e+001
8.041834e+002,8.752229e+001
8.070761e+002,8.739664e+001
8.099689e+002,8.743890e+001
8.128616e+002,8.741117e+001
8.157544e+002,8.748396e+001
8.186472e+002,8.747059e+001
8.215399e+002,8.728159e+001
8.244326e+002,8.695441e+001
8.273254e+002,8.665974e+001
8.302181e+002,8.592043e+001
8.331108e+002,8.453850e+001
8.360036e+002,8.224982e+001
8.388964e+002,7.860867e+001
8.417891e+002,7.927139e+001
8.446818e+002,8.369322e+001
8.475746e+002,8.508651e+001
8.504673e+002,8.548795e+001
8.533601e+002,8.528947e+001
8.562528e+002,8.524459e+001
8.591456e+002,8.520576e+001
8.620383e+002,8.495953e+001
8.649311e+002,8.489146e+001
8.678238e+002,8.471487e+001
8.707166e+002,8.461658e+001
8.736093e+002,8.456927e+001
8.765021e+002,8.451682e+001
8.793948e+002,8.444493e+001
8.822875e+002,8.433006e+001
8.851803e+002,8.412228e+001
8.880731e+002,8.395695e+001
8.909658e+002,8.385393e+001
8.938585e+002,8.375296e+001
8.967513e+002,8.356899e+001
8.996440e+002,8.334123e+001
9.025368e+002,8.298615e+001
9.054295e+002,8.239774e+001
9.083223e+002,8.188489e+001
9.112150e+002,8.122947e+001
9.141078e+002,8.045833e+001
9.170005e+002,7.972720e+001
9.198932e+002,7.873901e+001
9.227860e+002,7.715324e+001
9.256788e+002,7.491021e+001
9.285715e+002,7.179230e+001
9.314642e+002,6.789816e+001
9.343570e+002,6.645435e+001
9.372498e+002,6.989626e+001
9.401425e+002,7.303897e+001
9.430352e+002,7.347791e+001
9.459280e+002,7.210690e+001
9.488207e+002,6.938598e+001
9.517134e+002,6.560786e+001
9.546062e+002,6.111781e+001
9.574990e+002,5.612035e+001
9.603917e+002,5.284793e+001
9.632844e+002,5.646830e+001
9.661772e+002,6.486613e+001
9.690699e+002,6.982785e+001
9.719627e+002,7.244068e+001
9.748554e+002,7.420447e+001
9.777482e+002,7.596682e+001
9.806409e+002,7.701096e+001
9.835337e+002,7.725547e+001
9.864265e+002,7.708379e+001
9.893192e+002,7.683157e+001
9.922119e+002,7.662039e+001
9.951047e+002,7.656628e+001
9.979974e+002,7.653916e+001
1.000890e+003,7.625164e+001
1.003783e+003,7.586644e+001
1.006676e+003,7.533435e+001
1.009568e+003,7.462218e+001
1.012461e+003,7.390961e+001
1.015354e+003,7.300420e+001
1.018247e+003,7.189374e+001
1.021139e+003,7.062677e+001
1.024032e+003,6.903514e+001
1.026925e+003,6.690340e+001
1.029818e+003,6.441174e+001
1.032710e+003,6.145403e+001
1.035603e+003,5.777968e+001
1.038496e+003,5.340808e+001
1.041389e+003,4.865816e+001
1.044281e+003,4.497128e+001
1.047174e+003,4.615598e+001
1.050067e+003,5.448787e+001
1.052960e+003,6.276867e+001
1.055852e+003,6.739265e+001
1.058745e+003,6.837947e+001
1.061638e+003,6.612406e+001
1.064531e+003,6.320500e+001
1.067423e+003,6.446768e+001
1.070316e+003,6.916611e+001
1.073209e+003,7.161964e+001
1.076102e+003,7.176113e+001
1.078994e+003,7.047981e+001
1.081887e+003,6.819617e+001
1.084780e+003,6.566256e+001
1.087673e+003,6.308649e+001
1.090565e+003,6.098148e+001
1.093458e+003,5.968473e+001
1.096351e+003,5.898790e+001
1.099244e+003,5.824388e+001
1.102136e+003,5.678460e+001
1.105029e+003,5.433328e+001
1.107922e+003,5.299743e+001
1.110815e+003,5.698205e+001
1.113707e+003,6.371555e+001
1.116600e+003,6.881734e+001
1.119493e+003,7.104772e+001
1.122385e+003,7.061005e+001
1.125278e+003,6.876863e+001
1.128171e+003,6.621779e+001
1.131064e+003,6.315773e+001
1.133957e+003,5.955762e+001
1.136849e+003,5.543310e+001
1.139742e+003,5.071812e+001
1.142635e+003,4.555208e+001
1.145527e+003,4.014369e+001
1.148420e+003,3.474485e+001
1.151313e+003,3.013091e+001
1.154206e+003,2.661380e+001
1.157099e+003,2.435407e+001
1.159991e+003,2.335035e+001
1.162884e+003,2.327470e+001
1.165777e+003,2.383061e+001
1.168669e+003,2.462737e+001
1.171562e+003,2.551426e+001
1.174455e+003,2.639304e+001
1.177348e+003,2.742262e+001
1.180240e+003,2.874422e+001
1.183133e+003,2.985427e+001
1.186026e+003,3.068443e+001
1.188919e+003,3.349150e+001
1.191811e+003,3.894173e+001
1.194704e+003,4.690403e+001
1.197597e+003,5.622308e+001
1.200490e+003,6.388008e+001
1.203382e+003,6.792418e+001
1.206275e+003,6.992865e+001
1.209168e+003,7.091463e+001
1.212061e+003,7.121625e+001
1.214953e+003,7.085438e+001
1.217846e+003,7.010829e+001
1.220739e+003,6.864023e+001
1.223632e+003,6.627794e+001
1.226524e+003,6.248800e+001
1.229417e+003,5.653553e+001
1.232310e+003,4.866211e+001
1.235203e+003,4.088850e+001
1.238095e+003,3.748922e+001
1.240988e+003,3.947020e+001
1.243881e+003,4.407714e+001
1.246774e+003,5.341914e+001
1.249666e+003,6.474054e+001
1.252559e+003,7.142727e+001
1.255452e+003,7.450227e+001
1.258345e+003,7.623199e+001
1.261237e+003,7.742448e+001
1.264130e+003,7.828693e+001
1.267023e+003,7.869991e+001
1.269916e+003,7.852983e+001
1.272808e+003,7.786512e+001
1.275701e+003,7.697470e+001
1.278594e+003,7.592284e+001
1.281487e+003,7.449762e+001
1.284379e+003,7.245678e+001
1.287272e+003,6.854527e+001
1.290165e+003,6.056857e+001
1.293057e+003,5.447078e+001
1.295950e+003,5.924584e+001
1.298843e+003,6.768016e+001
1.301736e+003,7.393595e+001
1.304629e+003,7.703675e+001
1.307521e+003,7.969961e+001
1.310414e+003,8.196162e+001
1.313307e+003,8.333674e+001
1.316200e+003,8.423451e+001
1.319092e+003,8.460034e+001
1.321985e+003,8.460159e+001
1.324878e+003,8.473613e+001
1.327771e+003,8.546850e+001
1.330663e+003,8.637734e+001
1.333556e+003,8.686730e+001
1.336449e+003,8.681937e+001
1.339342e+003,8.614234e+001
1.342234e+003,8.470010e+001
1.345127e+003,8.254717e+001
1.348020e+003,7.962666e+001
1.350912e+003,7.598063e+001
1.353805e+003,7.267694e+001
1.356698e+003,6.992020e+001
1.359591e+003,6.575571e+001
1.362484e+003,6.100338e+001
1.365376e+003,5.877125e+001
1.368269e+003,6.131839e+001
1.371162e+003,6.613565e+001
1.374054e+003,6.865985e+001
1.376947e+003,7.293802e+001
1.379840e+003,7.941664e+001
1.382733e+003,8.338843e+001
1.385625e+003,8.426003e+001
1.388518e+003,8.292493e+001
1.391411e+003,8.027153e+001
1.394304e+003,7.716982e+001
1.397196e+003,7.514026e+001
1.400089e+003,7.820883e+001
1.402982e+003,8.260559e+001
1.405875e+003,8.528882e+001
1.408767e+003,8.469609e+001
1.411660e+003,8.075398e+001
1.414553e+003,7.620922e+001
1.417446e+003,7.469248e+001
1.420338e+003,7.482085e+001
1.423231e+003,8.072386e+001
1.426124e+003,8.584541e+001
1.429017e+003,8.792197e+001
1.431909e+003,8.806168e+001
1.434802e+003,8.707359e+001
1.437695e+003,8.694808e+001
1.440588e+003,8.790443e+001
1.443480e+003,8.853730e+001
1.446373e+003,8.817665e+001
1.449266e+003,8.762325e+001
1.452159e+003,8.657567e+001
1.455051e+003,8.495388e+001
1.457944e+003,8.191785e+001
1.460837e+003,8.128008e+001
1.463730e+003,7.964706e+001
1.466622e+003,7.972364e+001
1.469515e+003,7.565925e+001
1.472408e+003,7.870657e+001
1.475301e+003,8.312143e+001
1.478193e+003,8.397705e+001
1.481086e+003,8.928096e+001
1.483979e+003,9.305987e+001
1.486872e+003,9.474794e+001
1.489764e+003,9.564060e+001
1.492657e+003,9.623607e+001
1.495550e+003,9.657295e+001
1.498443e+003,9.680523e+001
1.501335e+003,9.692055e+001
1.504228e+003,9.706997e+001
1.507121e+003,9.727570e+001
1.510014e+003,9.733215e+001
1.512906e+003,9.730521e+001
1.515799e+003,9.740672e+001
1.518692e+003,9.748722e+001
1.521584e+003,9.746737e+001
1.524477e+003,9.750484e+001
1.527370e+003,9.744460e+001
1.530263e+003,9.752525e+001
1.533156e+003,9.746904e+001
1.536048e+003,9.742816e+001
1.538941e+003,9.722757e+001
1.541834e+003,9.734803e+001
1.544726e+003,9.738499e+001
1.547619e+003,9.737984e+001
1.550512e+003,9.738463e+001
1.553405e+003,9.727769e+001
1.556297e+003,9.732011e+001
1.559190e+003,9.755627e+001
1.562083e+003,9.728120e+001
1.564976e+003,9.727329e+001
1.567869e+003,9.721722e+001
1.570761e+003,9.717290e+001
1.573654e+003,9.714240e+001
1.576547e+003,9.708730e+001
1.579439e+003,9.695660e+001
1.582332e+003,9.695592e+001
1.585225e+003,9.688019e+001
1.588118e+003,9.685493e+001
1.591010e+003,9.673835e+001
1.593903e+003,9.663589e+001
1.596796e+003,9.650395e+001
1.599689e+003,9.647553e+001
1.602581e+003,9.636856e+001
1.605474e+003,9.619819e+001
1.608367e+003,9.604600e+001
1.611260e+003,9.580319e+001
1.614152e+003,9.568705e+001
1.617045e+003,9.569733e+001
1.619938e+003,9.535938e+001
1.622831e+003,9.519677e+001
1.625723e+003,9.491764e+001
1.628616e+003,9.469072e+001
1.631509e+003,9.444974e+001
1.634402e+003,9.425564e+001
1.637294e+003,9.415726e+001
1.640187e+003,9.396730e+001
1.643080e+003,9.382773e+001
1.645973e+003,9.355441e+001
1.648865e+003,9.348328e+001
1.651758e+003,9.302413e+001
1.654651e+003,9.273110e+001
1.657544e+003,9.217683e+001
1.660436e+003,9.155934e+001
1.663329e+003,9.089529e+001
1.666222e+003,8.996355e+001
1.669115e+003,8.892267e+001
1.672007e+003,8.752354e+001
1.674900e+003,8.602023e+001
1.677793e+003,8.384566e+001
1.680686e+003,8.106587e+001
1.683578e+003,7.843899e+001
1.686471e+003,7.627249e+001
1.689364e+003,7.427082e+001
1.692257e+003,7.255414e+001
1.695149e+003,7.050965e+001
1.698042e+003,6.757089e+001
1.700935e+003,6.386157e+001
1.703828e+003,6.023580e+001
1.706720e+003,5.443898e+001
1.709613e+003,4.733580e+001
1.712506e+003,3.756400e+001
1.715399e+003,2.530726e+001
1.718291e+003,1.464776e+001
1.721184e+003,1.251148e+001
1.724077e+003,1.879453e+001
1.726969e+003,2.958550e+001
1.729862e+003,3.761235e+001
1.732755e+003,4.278868e+001
1.735648e+003,5.065018e+001
1.738541e+003,5.737292e+001
1.741433e+003,6.655620e+001
1.744326e+003,7.545556e+001
1.747219e+003,8.235986e+001
1.750111e+003,8.715572e+001
1.753004e+003,9.024847e+001
1.755897e+003,9.177911e+001
1.758790e+003,9.281906e+001
1.761682e+003,9.350991e+001
1.764575e+003,9.385452e+001
1.767468e+003,9.424677e+001
1.770361e+003,9.466432e+001
1.773253e+003,9.507338e+001
1.776146e+003,9.543369e+001
1.779039e+003,9.570395e+001
1.781932e+003,9.600981e+001
1.784824e+003,9.637454e+001
1.787717e+003,9.655321e+001
1.790610e+003,9.680464e+001
1.793503e+003,9.710458e+001
1.796395e+003,9.728264e+001
1.799288e+003,9.739439e+001
1.802181e+003,9.764493e+001
1.805074e+003,9.774162e+001
1.807966e+003,9.779859e+001
1.810859e+003,9.799266e+001
1.813752e+003,9.806789e+001
1.816645e+003,9.832084e+001
1.819537e+003,9.822276e+001
1.822430e+003,9.821803e+001
1.825323e+003,9.832566e+001
1.828216e+003,9.833907e+001
1.831108e+003,9.845211e+001
1.834001e+003,9.843747e+001
1.836894e+003,9.841247e+001
1.839787e+003,9.844382e+001
1.842679e+003,9.851010e+001
1.845572e+003,9.849086e+001
1.848465e+003,9.851236e+001
1.851358e+003,9.856857e+001
1.854250e+003,9.870989e+001
1.857143e+003,9.874058e+001
1.860036e+003,9.882084e+001
1.862929e+003,9.878715e+001
1.865821e+003,9.882591e+001
1.868714e+003,9.873425e+001
1.871607e+003,9.875491e+001
1.874500e+003,9.876650e+001
1.877392e+003,9.877428e+001
1.880285e+003,9.883068e+001
1.883178e+003,9.864656e+001
1.886071e+003,9.875208e+001
1.888963e+003,9.886898e+001
1.891856e+003,9.885446e+001
1.894749e+003,9.876022e+001
1.897642e+003,9.876479e+001
1.900534e+003,9.878041e+001
1.903427e+003,9.868584e+001
1.906320e+003,9.877667e+001
1.909213e+003,9.876534e+001
1.912105e+003,9.862729e+001
1.914998e+003,9.874315e+001
1.917891e+003,9.850718e+001
1.920784e+003,9.869528e+001
1.923676e+003,9.888803e+001
1.926569e+003,9.870075e+001
1.929462e+003,9.871316e+001
1.932354e+003,9.887287e+001
1.935247e+003,9.877645e+001
1.938140e+003,9.892612e+001
1.941033e+003,9.884285e+001
1.943926e+003,9.870197e+001
1.946818e+003,9.886525e+001
1.949711e+003,9.897417e+001
1.952604e+003,9.887729e+001
1.955496e+003,9.899810e+001
1.958389e+003,9.899980e+001
1.961282e+003,9.886228e+001
1.964175e+003,9.875888e+001
1.967068e+003,9.891331e+001
1.969960e+003,9.897618e+001
1.972853e+003,9.873637e+001
1.975746e+003,9.888567e+001
1.978638e+003,9.834975e+001
1.981531e+003,9.867512e+001
1.984424e+003,9.865061e+001
1.987317e+003,9.873582e+001
1.990209e+003,9.873598e+001
1.993102e+003,9.878181e+001
1.995995e+003,9.897546e+001
1.998888e+003,9.877045e+001
2.001780e+003,9.862128e+001
2.004673e+003,9.890887e+001
2.007566e+003,9.887058e+001
2.010459e+003,9.876350e+001
2.013351e+003,9.870107e+001
2.016244e+003,9.886771e+001
2.019137e+003,9.871252e+001
2.022030e+003,9.872612e+001
2.024922e+003,9.869260e+001
2.027815e+003,9.849234e+001
2.030708e+003,9.854299e+001
2.033601e+003,9.863668e+001
2.036493e+003,9.880385e+001
2.039386e+003,9.871571e+001
2.042279e+003,9.867365e+001
2.045172e+003,9.881386e+001
2.048064e+003,9.858228e+001
2.050957e+003,9.853411e+001
2.053850e+003,9.874209e+001
2.056743e+003,9.867996e+001
2.059635e+003,9.881429e+001
2.062528e+003,9.875950e+001
2.065421e+003,9.865371e+001
2.068314e+003,9.862311e+001
2.071206e+003,9.851804e+001
2.074099e+003,9.847613e+001
2.076992e+003,9.844877e+001
2.079885e+003,9.837090e+001
2.082777e+003,9.844241e+001
2.085670e+003,9.828999e+001
2.088563e+003,9.853516e+001
2.091456e+003,9.840439e+001
2.094348e+003,9.851958e+001
2.097241e+003,9.828432e+001
2.100134e+003,9.830630e+001
2.103027e+003,9.834876e+001
2.105919e+003,9.857124e+001
2.108812e+003,9.844381e+001
2.111705e+003,9.856484e+001
2.114598e+003,9.853392e+001
2.117490e+003,9.879340e+001
2.120383e+003,9.894749e+001
2.123276e+003,9.891479e+001
2.126168e+003,9.880013e+001
2.129061e+003,9.916250e+001
2.131954e+003,9.923399e+001
2.134847e+003,9.903585e+001
2.137740e+003,9.907587e+001
2.140632e+003,9.895618e+001
2.143525e+003,9.910604e+001
2.146418e+003,9.926601e+001
2.149311e+003,9.904991e+001
2.152203e+003,9.926189e+001
2.155096e+003,9.914108e+001
2.157989e+003,9.913318e+001
2.160882e+003,9.836315e+001
2.163774e+003,9.857867e+001
2.166667e+003,9.861398e+001
2.169560e+003,9.899612e+001
2.172452e+003,9.893059e+001
2.175345e+003,9.898447e+001
2.178238e+003,9.915200e+001
2.181131e+003,9.900401e+001
2.184023e+003,9.900372e+001
2.186916e+003,9.867138e+001
2.189809e+003,9.876757e+001
2.192702e+003,9.894057e+001
2.195594e+003,9.898299e+001
2.198487e+003,9.882422e+001
2.201380e+003,9.875720e+001
2.204273e+003,9.904411e+001
2.207166e+003,9.882472e+001
2.210058e+003,9.888004e+001
2.212951e+003,9.888767e+001
2.215844e+003,9.894014e+001
2.218736e+003,9.885056e+001
2.221629e+003,9.883615e+001
2.224522e+003,9.889297e+001
2.227415e+003,9.900031e+001
2.230307e+003,9.894621e+001
2.233200e+003,9.891151e+001
2.236093e+003,9.879030e+001
2.238986e+003,9.870631e+001
2.241878e+003,9.891602e+001
2.244771e+003,9.895280e+001
2.247664e+003,9.902509e+001
2.250557e+003,9.892681e+001
2.253449e+003,9.895784e+001
2.256342e+003,9.882815e+001
2.259235e+003,9.893326e+001
2.262128e+003,9.882667e+001
2.265020e+003,9.893124e+001
2.267913e+003,9.881733e+001
2.270806e+003,9.881264e+001
2.273699e+003,9.891709e+001
2.276591e+003,9.873857e+001
2.279484e+003,9.880335e+001
2.282377e+003,9.862444e+001
2.285270e+003,9.859290e+001
2.288162e+003,9.867675e+001
2.291055e+003,9.869157e+001
2.293948e+003,9.875909e+001
2.296841e+003,9.870422e+001
2.299733e+003,9.877820e+001
2.302626e+003,9.874664e+001
2.305519e+003,9.871307e+001
2.308412e+003,9.868903e+001
2.311304e+003,9.870168e+001
2.314197e+003,9.870226e+001
2.317090e+003,9.865743e+001
2.319983e+003,9.860925e+001
2.322875e+003,9.849252e+001
2.325768e+003,9.854340e+001
2.328661e+003,9.889819e+001
2.331553e+003,9.875424e+001
2.334446e+003,9.875050e+001
2.337339e+003,9.860978e+001
2.340232e+003,9.876627e+001
2.343125e+003,9.868994e+001
2.346017e+003,9.872114e+001
2.348910e+003,9.874908e+001
2.351803e+003,9.882357e+001
2.354696e+003,9.880098e+001
2.357588e+003,9.890436e+001
2.360481e+003,9.927014e+001
2.363374e+003,9.919123e+001
2.366267e+003,9.925497e+001
2.369159e+003,9.912250e+001
2.372052e+003,9.903200e+001
2.374945e+003,9.910353e+001
2.377837e+003,9.920975e+001
2.380730e+003,9.906656e+001
2.383623e+003,9.908209e+001
2.386516e+003,9.910825e+001
2.389408e+003,9.912041e+001
2.392301e+003,9.902614e+001
2.395194e+003,9.903247e+001
2.398087e+003,9.896220e+001
2.400979e+003,9.898602e+001
2.403872e+003,9.907756e+001
2.406765e+003,9.895718e+001
2.409658e+003,9.889577e+001
2.412551e+003,9.883562e+001
2.415443e+003,9.887736e+001
2.418336e+003,9.883487e+001
2.421229e+003,9.892683e+001
2.424121e+003,9.894730e+001
2.427014e+003,9.900346e+001
2.429907e+003,9.907506e+001
2.432800e+003,9.895470e+001
2.435692e+003,9.910062e+001
2.438585e+003,9.901797e+001
2.441478e+003,9.897886e+001
2.444371e+003,9.901890e+001
2.447263e+003,9.897986e+001
2.450156e+003,9.904767e+001
2.453049e+003,9.900752e+001
2.455942e+003,9.893651e+001
2.458834e+003,9.906241e+001
2.461727e+003,9.906899e+001
2.464620e+003,9.905119e+001
2.467513e+003,9.904723e+001
2.470405e+003,9.904514e+001
2.473298e+003,9.894844e+001
2.476191e+003,9.897971e+001
2.479084e+003,9.902935e+001
2.481976e+003,9.897431e+001
2.484869e+003,9.895334e+001
2.487762e+003,9.899855e+001
2.490655e+003,9.901449e+001
2.493547e+003,9.903107e+001
2.496440e+003,9.907534e+001
2.499333e+003,9.908691e+001
2.502226e+003,9.907005e+001
2.505118e+003,9.905155e+001
2.508011e+003,9.907133e+001
2.510904e+003,9.904509e+001
2.513797e+003,9.903680e+001
2.516689e+003,9.902824e+001
2.519582e+003,9.905392e+001
2.522475e+003,9.900458e+001
2.525368e+003,9.899705e+001
2.528260e+003,9.900164e+001
2.531153e+003,9.886738e+001
2.534046e+003,9.888607e+001
2.536938e+003,9.889409e+001
2.539831e+003,9.886364e+001
2.542724e+003,9.887732e+001
2.545617e+003,9.891109e+001
2.548510e+003,9.900230e+001
2.551402e+003,9.895727e+001
2.554295e+003,9.905476e+001
2.557188e+003,9.902740e+001
2.560081e+003,9.893307e+001
2.562973e+003,9.894907e+001
2.565866e+003,9.881882e+001
2.568759e+003,9.884031e+001
2.571652e+003,9.883503e+001
2.574544e+003,9.891718e+001
2.577437e+003,9.880900e+001
2.580330e+003,9.877577e+001
2.583222e+003,9.891933e+001
2.586115e+003,9.887486e+001
2.589008e+003,9.886013e+001
2.591901e+003,9.885896e+001
2.594793e+003,9.885583e+001
2.597686e+003,9.878559e+001
2.600579e+003,9.887348e+001
2.603472e+003,9.880802e+001
2.606365e+003,9.877966e+001
2.609257e+003,9.879321e+001
2.612150e+003,9.877551e+001
2.615043e+003,9.875680e+001
2.617936e+003,9.871724e+001
2.620828e+003,9.885574e+001
2.623721e+003,9.876882e+001
2.626614e+003,9.873273e+001
2.629506e+003,9.877303e+001
2.632399e+003,9.867058e+001
2.635292e+003,9.868229e+001
2.638185e+003,9.866211e+001
2.641077e+003,9.860345e+001
2.643970e+003,9.863912e+001
2.646863e+003,9.858925e+001
2.649756e+003,9.856355e+001
2.652648e+003,9.850713e+001
2.655541e+003,9.858397e+001
2.658434e+003,9.857050e+001
2.661327e+003,9.861152e+001
2.664219e+003,9.869464e+001
2.667112e+003,9.865795e+001
2.670005e+003,9.866586e+001
2.672898e+003,9.871075e+001
2.675790e+003,9.862095e+001
2.678683e+003,9.861920e+001
2.681576e+003,9.863899e+001
2.684469e+003,9.858883e+001
2.687361e+003,9.860341e+001
2.690254e+003,9.856415e+001
2.693147e+003,9.862483e+001
2.696040e+003,9.858035e+001
2.698932e+003,9.857543e+001
2.701825e+003,9.861774e+001
2.704718e+003,9.861578e+001
2.707611e+003,9.850467e+001
2.710503e+003,9.855462e+001
2.713396e+003,9.852106e+001
2.716289e+003,9.855907e+001
2.719182e+003,9.850886e+001
2.722074e+003,9.855374e+001
2.724967e+003,9.852622e+001
2.727860e+003,9.850793e+001
2.730753e+003,9.849129e+001
2.733645e+003,9.847359e+001
2.736538e+003,9.843497e+001
2.739431e+003,9.847220e+001
2.742323e+003,9.844029e+001
2.745216e+003,9.840769e+001
2.748109e+003,9.836988e+001
2.751002e+003,9.838897e+001
2.753895e+003,9.834003e+001
2.756787e+003,9.832923e+001
2.759680e+003,9.833457e+001
2.762573e+003,9.834826e+001
2.765466e+003,9.822087e+001
2.768358e+003,9.819261e+001
2.771251e+003,9.824882e+001
2.774144e+003,9.816905e+001
2.777037e+003,9.816064e+001
2.779929e+003,9.815020e+001
2.782822e+003,9.811034e+001
2.785715e+003,9.808910e+001
2.788607e+003,9.803416e+001
2.791500e+003,9.800924e+001
2.794393e+003,9.792234e+001
2.797286e+003,9.789354e+001
2.800178e+003,9.778062e+001
2.803071e+003,9.776533e+001
2.805964e+003,9.760145e+001
2.808857e+003,9.746193e+001
2.811750e+003,9.731057e+001
2.814642e+003,9.710049e+001
2.817535e+003,9.687212e+001
2.820428e+003,9.671766e+001
2.823321e+003,9.651086e+001
2.826213e+003,9.627789e+001
2.829106e+003,9.605116e+001
2.831999e+003,9.575191e+001
2.834891e+003,9.538708e+001
2.837784e+003,9.484591e+001
2.840677e+003,9.406429e+001
2.843570e+003,9.301778e+001
2.846462e+003,9.172613e+001
2.849355e+003,8.986842e+001
2.852248e+003,8.779771e+001
2.855141e+003,8.541415e+001
2.858033e+003,8.304528e+001
2.860926e+003,8.074357e+001
2.863819e+003,7.928949e+001
2.866712e+003,7.959294e+001
2.869604e+003,8.127407e+001
2.872497e+003,8.370796e+001
2.875390e+003,8.605396e+001
2.878283e+003,8.756929e+001
2.881175e+003,8.826429e+001
2.884068e+003,8.839701e+001
2.886961e+003,8.778864e+001
2.889854e+003,8.626350e+001
2.892746e+003,8.451283e+001
2.895639e+003,8.390747e+001
2.898532e+003,8.456010e+001
2.901425e+003,8.466190e+001
2.904317e+003,8.386281e+001
2.907210e+003,8.286342e+001
2.910103e+003,8.189989e+001
2.912996e+003,8.111579e+001
2.915888e+003,8.009447e+001
2.918781e+003,7.862260e+001
2.921674e+003,7.707109e+001
2.924567e+003,7.573380e+001
2.927459e+003,7.490906e+001
2.930352e+003,7.408182e+001
2.933245e+003,7.253820e+001
2.936137e+003,7.150930e+001
2.939030e+003,7.090744e+001
2.941923e+003,7.040532e+001
2.944816e+003,7.030495e+001
2.947708e+003,7.126469e+001
2.950601e+003,7.324633e+001
2.953494e+003,7.476372e+001
2.956387e+003,7.616025e+001
2.959280e+003,7.844487e+001
2.962172e+003,8.109875e+001
2.965065e+003,8.346101e+001
2.967958e+003,8.571642e+001
2.970851e+003,8.797085e+001
2.973743e+003,8.996725e+001
2.976636e+003,9.173904e+001
2.979529e+003,9.297260e+001
2.982422e+003,9.409032e+001
2.985314e+003,9.495890e+001
2.988207e+003,9.565171e+001
2.991100e+003,9.620055e+001
2.993992e+003,9.667403e+001
2.996885e+003,9.705058e+001
2.999778e+003,9.730561e+001
3.002671e+003,9.758786e+001
3.005563e+003,9.773827e+001
3.008456e+003,9.794813e+001
3.011349e+003,9.807725e+001
3.014242e+003,9.815110e+001
3.017135e+003,9.824245e+001
3.020027e+003,9.830800e+001
3.022920e+003,9.836849e+001
3.025813e+003,9.839171e+001
3.028706e+003,9.852145e+001
3.031598e+003,9.846461e+001
3.034491e+003,9.860861e+001
3.037384e+003,9.862542e+001
3.040276e+003,9.865607e+001
3.043169e+003,9.860649e+001
3.046062e+003,9.869626e+001
3.048955e+003,9.880502e+001
3.051847e+003,9.868304e+001
3.054740e+003,9.868918e+001
3.057633e+003,9.876385e+001
3.060526e+003,9.880701e+001
3.063418e+003,9.867426e+001
3.066311e+003,9.877135e+001
3.069204e+003,9.877046e+001
3.072097e+003,9.877653e+001
3.074990e+003,9.880631e+001
3.077882e+003,9.877142e+001
3.080775e+003,9.883256e+001
3.083668e+003,9.882391e+001
3.086560e+003,9.885413e+001
3.089453e+003,9.893089e+001
3.092346e+003,9.893568e+001
3.095239e+003,9.880736e+001
3.098131e+003,9.889308e+001
3.101024e+003,9.893263e+001
3.103917e+003,9.894009e+001
3.106810e+003,9.875310e+001
3.109702e+003,9.885672e+001
3.112595e+003,9.899937e+001
3.115488e+003,9.888309e+001
3.118381e+003,9.898542e+001
3.121273e+003,9.891199e+001
3.124166e+003,9.886359e+001
3.127059e+003,9.887672e+001
3.129952e+003,9.897972e+001
3.132844e+003,9.895631e+001
3.135737e+003,9.889117e+001
3.138630e+003,9.897902e+001
3.141522e+003,9.900952e+001
3.144415e+003,9.895886e+001
3.147308e+003,9.896672e+001
3.150201e+003,9.896202e+001
3.153094e+003,9.887730e+001
3.155986e+003,9.904751e+001
3.158879e+003,9.898185e+001
3.161772e+003,9.906904e+001
3.164665e+003,9.902820e+001
3.167557e+003,9.909646e+001
3.170450e+003,9.892886e+001
3.173343e+003,9.908572e+001
3.176236e+003,9.896168e+001
3.179128e+003,9.908161e+001
3.182021e+003,9.900751e+001
3.184914e+003,9.899465e+001
3.187806e+003,9.906990e+001
3.190699e+003,9.905367e+001
3.193592e+003,9.893192e+001
3.196485e+003,9.900815e+001
3.199377e+003,9.907639e+001
3.202270e+003,9.906394e+001
3.205163e+003,9.896860e+001
3.208056e+003,9.903671e+001
3.210948e+003,9.900293e+001
3.213841e+003,9.909631e+001
3.216734e+003,9.906477e+001
3.219627e+003,9.909558e+001
3.222520e+003,9.902384e+001
3.225412e+003,9.906413e+001
3.228305e+003,9.909858e+001
3.231198e+003,9.902682e+001
3.234091e+003,9.906626e+001
3.236983e+003,9.908286e+001
3.239876e+003,9.906160e+001
3.242769e+003,9.912392e+001
3.245661e+003,9.908002e+001
3.248554e+003,9.910896e+001
3.251447e+003,9.899606e+001
3.254340e+003,9.898080e+001
3.257232e+003,9.897587e+001
3.260125e+003,9.902978e+001
3.263018e+003,9.907724e+001
3.265911e+003,9.897321e+001
3.268803e+003,9.906582e+001
3.271696e+003,9.907844e+001
3.274589e+003,9.896403e+001
3.277482e+003,9.890819e+001
3.280375e+003,9.903638e+001
3.283267e+003,9.904244e+001
3.286160e+003,9.898569e+001
3.289053e+003,9.897169e+001
3.291945e+003,9.892544e+001
3.294838e+003,9.903683e+001
3.297731e+003,9.907301e+001
3.300624e+003,9.908299e+001
3.303516e+003,9.904000e+001
3.306409e+003,9.907001e+001
3.309302e+003,9.899319e+001
3.312195e+003,9.914969e+001
3.315087e+003,9.909182e+001
3.317980e+003,9.899694e+001
3.320873e+003,9.905833e+001
3.323766e+003,9.905530e+001
3.326658e+003,9.916591e+001
3.329551e+003,9.913934e+001
3.332444e+003,9.902078e+001
3.335337e+003,9.902132e+001
3.338229e+003,9.912822e+001
3.341122e+003,9.901626e+001
3.344015e+003,9.898907e+001
3.346907e+003,9.897025e+001
3.349800e+003,9.896228e+001
3.352693e+003,9.910586e+001
3.355586e+003,9.905120e+001
3.358479e+003,9.901097e+001
3.361371e+003,9.905920e+001
3.364264e+003,9.893038e+001
3.367157e+003,9.902374e+001
3.370050e+003,9.897707e+001
3.372942e+003,9.908092e+001
3.375835e+003,9.908353e+001
3.378728e+003,9.923299e+001
3.381621e+003,9.912593e+001
3.384513e+003,9.900597e+001
3.387406e+003,9.902945e+001
3.390299e+003,9.896876e+001
3.393191e+003,9.908887e+001
3.396084e+003,9.901392e+001
3.398977e+003,9.905568e+001
3.401870e+003,9.896522e+001
3.404762e+003,9.903500e+001
3.407655e+003,9.902084e+001
3.410548e+003,9.901778e+001
3.413441e+003,9.883509e+001
3.416333e+003,9.889068e+001
3.419226e+003,9.887517e+001
3.422119e+003,9.866224e+001
3.425012e+003,9.867086e+001
3.427905e+003,9.857105e+001
3.430797e+003,9.839445e+001
3.433690e+003,9.813644e+001
3.436583e+003,9.798541e+001
3.439475e+003,9.810107e+001
3.442368e+003,9.833758e+001
3.445261e+003,9.832691e+001
3.448154e+003,9.841626e+001
3.451046e+003,9.848213e+001
3.453939e+003,9.854812e+001
3.456832e+003,9.852532e+001
3.459725e+003,9.860670e+001
3.462617e+003,9.865429e+001
3.465510e+003,9.880395e+001
3.468403e+003,9.877746e+001
3.471296e+003,9.880834e+001
3.474188e+003,9.892222e+001
3.477081e+003,9.898214e+001
3.479974e+003,9.896906e+001
3.482867e+003,9.909329e+001
3.485760e+003,9.894989e+001
3.488652e+003,9.903860e+001
3.491545e+003,9.909533e+001
3.494438e+003,9.898179e+001
3.497330e+003,9.896626e+001
3.500223e+003,9.907085e+001
3.503116e+003,9.899651e+001
3.506009e+003,9.912051e+001
3.508901e+003,9.895614e+001
3.511794e+003,9.891180e+001
3.514687e+003,9.910685e+001
3.517580e+003,9.902765e+001
3.520472e+003,9.896066e+001
3.523365e+003,9.910951e+001
3.526258e+003,9.890325e+001
3.529151e+003,9.897044e+001
3.532043e+003,9.895506e+001
3.534936e+003,9.907943e+001
3.537829e+003,9.897986e+001
3.540722e+003,9.906377e+001
3.543614e+003,9.891390e+001
3.546507e+003,9.893686e+001
3.549400e+003,9.901964e+001
3.552292e+003,9.899928e+001
3.555185e+003,9.901762e+001
3.558078e+003,9.908749e+001
3.560971e+003,9.910432e+001
3.563864e+003,9.901936e+001
3.566756e+003,9.919743e+001
3.569649e+003,9.910271e+001
3.572542e+003,9.918246e+001
3.575435e+003,9.927415e+001
3.578327e+003,9.919451e+001
3.581220e+003,9.920042e+001
3.584113e+003,9.925983e+001
3.587006e+003,9.956044e+001
3.589898e+003,9.918340e+001
3.592791e+003,9.908784e+001
3.595684e+003,9.927283e+001
3.598576e+003,9.912556e+001
3.601469e+003,9.922702e+001
3.604362e+003,9.912922e+001
3.607255e+003,9.928211e+001
3.610147e+003,9.918473e+001
3.613040e+003,9.929594e+001
3.615933e+003,9.915929e+001
3.618826e+003,9.914916e+001
3.621719e+003,9.921478e+001
3.624611e+003,9.933045e+001
3.627504e+003,9.947903e+001
3.630397e+003,9.921140e+001
3.633290e+003,9.917278e+001
3.636182e+003,9.920576e+001
3.639075e+003,9.923376e+001
3.641968e+003,9.934427e+001
3.644860e+003,9.930980e+001
3.647753e+003,9.937078e+001
3.650646e+003,9.975983e+001
3.653539e+003,9.920161e+001
3.656431e+003,9.944467e+001
3.659324e+003,9.931653e+001
3.662217e+003,9.946207e+001
3.665110e+003,9.938831e+001
3.668002e+003,9.924332e+001
3.670895e+003,9.928587e+001
3.673788e+003,9.926453e+001
3.676681e+003,9.933563e+001
3.679573e+003,9.936381e+001
3.682466e+003,9.931001e+001
3.685359e+003,9.935081e+001
3.688252e+003,9.946336e+001
3.691145e+003,9.952171e+001
3.694037e+003,9.944540e+001
3.696930e+003,9.940382e+001
3.699823e+003,9.947500e+001
3.702715e+003,9.937068e+001
3.705608e+003,9.942531e+001
3.708501e+003,9.949519e+001
3.711394e+003,9.956010e+001
3.714286e+003,9.942314e+001
3.717179e+003,9.945515e+001
3.720072e+003,9.938242e+001
3.722965e+003,9.933766e+001
3.725857e+003,9.952847e+001
3.728750e+003,9.955631e+001
3.731643e+003,9.944727e+001
3.734536e+003,9.969470e+001
3.737428e+003,9.937435e+001
3.740321e+003,9.939490e+001
3.743214e+003,9.934590e+001
3.746107e+003,9.942329e+001
3.748999e+003,9.957803e+001
3.751892e+003,9.969438e+001
3.754785e+003,9.938906e+001
3.757677e+003,9.935139e+001
3.760570e+003,9.944874e+001
3.763463e+003,9.934277e+001
3.766356e+003,9.939449e+001
3.769249e+003,9.942110e+001
3.772141e+003,9.939912e+001
3.775034e+003,9.939338e+001
3.777927e+003,9.944349e+001
3.780820e+003,9.934551e+001
3.783712e+003,9.949015e+001
3.786605e+003,9.937547e+001
3.789498e+003,9.943042e+001
3.792391e+003,9.939105e+001
3.795283e+003,9.937127e+001
3.798176e+003,9.944321e+001
3.801069e+003,9.926756e+001
3.803961e+003,9.937029e+001
3.806854e+003,9.968901e+001
3.809747e+003,9.947935e+001
3.812640e+003,9.959468e+001
3.815532e+003,9.965023e+001
3.818425e+003,9.956171e+001
3.821318e+003,9.949620e+001
3.824211e+003,9.930658e+001
3.827104e+003,9.950725e+001
3.829996e+003,9.947702e+001
3.832889e+003,9.945641e+001
3.835782e+003,9.938446e+001
3.838675e+003,9.961331e+001
3.841567e+003,9.940224e+001
3.844460e+003,9.934206e+001
3.847353e+003,9.938766e+001
3.850245e+003,9.947642e+001
3.853138e+003,9.952538e+001
3.856031e+003,9.930135e+001
3.858924e+003,9.942896e+001
3.861816e+003,9.938622e+001
3.864709e+003,9.979890e+001
3.867602e+003,9.951633e+001
3.870495e+003,9.945383e+001
3.873387e+003,9.935385e+001
3.876280e+003,9.934756e+001
3.879173e+003,9.949775e+001
3.882066e+003,9.945107e+001
3.884958e+003,9.937880e+001
3.887851e+003,9.927893e+001
3.890744e+003,9.937778e+001
3.893637e+003,9.946370e+001
3.896529e+003,9.939114e+001
3.899422e+003,9.951001e+001
3.902315e+003,9.911452e+001
3.905208e+003,9.951677e+001
3.908100e+003,9.928639e+001
3.910993e+003,9.940364e+001
3.913886e+003,9.955278e+001
3.916779e+003,9.939503e+001
3.919671e+003,9.940782e+001
3.922564e+003,9.945770e+001
3.925457e+003,9.936569e+001
3.928350e+003,9.945350e+001
3.931242e+003,9.938332e+001
3.934135e+003,9.930313e+001
3.937028e+003,9.935503e+001
3.939921e+003,9.945576e+001
3.942813e+003,9.950085e+001
3.945706e+003,9.941959e+001
3.948599e+003,9.939124e+001
3.951492e+003,9.947134e+001
3.954384e+003,9.945588e+001
3.957277e+003,9.946650e+001
3.960170e+003,9.938483e+001
3.963063e+003,9.934269e+001
3.965955e+003,9.935680e+001
3.968848e+003,9.941339e+001
3.971741e+003,9.941156e+001
3.974634e+003,9.928967e+001
3.977526e+003,9.942000e+001
3.980419e+003,9.934508e+001
3.983312e+003,9.944421e+001
3.986205e+003,9.937891e+001
3.989097e+003,9.945462e+001
3.991990e+003,9.943340e+001
3.994883e+003,9.929788e+001
3.997776e+003,9.923351e+001
4.000668e+003,0.000000e+000