File: FTIR Data (PCL)/PCL_1.CSV
3.991989e+002,0.000000e+000
4.020916e+002,0.000000e+000
4.049844e+002,0.000000e+000
4.078771e+002,0.000000e+000
4.107699e+002,0.000000e+000
4.136626e+002,0.000000e+000
4.165554e+002,0.000000e+000
4.194481e+002,0.000000e+000
4.223409e+002,0.000000e+000
4.252336e+002,0.000000e+000
4.281263e+002,0.000000e+000
4.310191e+002,0.000000e+000
4.339118e+002,0.000000e+000
4.368046e+002,0.000000e+000
4.396973e+002,0.000000e+000
4.425901e+002,0.000000e+000
4.454828e+002,0.000000e+000
4.483756e+002,0.000000e+000
4.512683e+002,0.000000e+000
4.541611e+002,0.000000e+000
4.570538e+002,0.000000e+000
4.599466e+002,0.000000e+000
4.628393e+002,0.000000e+000
4.657321e+002,0.000000e+000
4.686248e+002,0.000000e+000
4.715175e+002,0.000000e+000
4.744103e+002,0.000000e+000
4.773030e+002,0.000000e+000
4.801958e+002,0.000000e+000
4.830885e+002,0.000000e+000
4.859813e+002,0.000000e+000
4.888740e+002,0.000000e+000
4.917668e+002,0.000000e+000
4.946595e+002,0.000000e+000
4.975523e+002,0.000000e+000
5.004450e+002,0.000000e+000
5.033378e+002,0.000000e+000
5.062305e+002,0.000000e+000
5.091233e+002,0.000000e+000
5.120160e+002,0.000000e+000
5.149088e+002,0.000000e+000
5.178015e+002,0.000000e+000
5.206942e+002,0.000000e+000
5.235870e+002,0.000000e+000
5.264797e+002,0.000000e+000
5.293725e+002,0.000000e+000
5.322652e+002,0.000000e+000
5.351580e+002,0.000000e+000
5.380507e+002,0.000000e+000
5.409435e+002,0.000000e+000
5.438362e+002,0.000000e+000
5.467289e+002,0.000000e+000
5.496217e+002,8.334021e+001
5.525145e+002,8.305908e+001
5.554072e+002,8.540773e+001
5.582999e+002,8.371514e+001
5.611927e+002,8.691990e+001
5.640854e+002,8.308964e+001
5.669782e+002,8.029945e+001
5.698709e+002,8.315743e+001
5.727637e+002,8.106131e+001
5.756564e+002,7.847417e+001
5.785492e+002,7.936283e+001
5.814419e+002,7.892904e+001
5.843347e+002,7.854070e+001
5.872274e+002,7.911632e+001
5.901202e+002,8.093022e+001
5.930129e+002,8.160059e+001
5.959056e+002,8.407999e+001
5.987984e+002,8.457708e+001
6.016912e+002,8.458061e+001
6.045839e+002,8.543120e+001
6.074766e+002,8.494794e+001
6.103694e+002,8.471783e+001
6.132621e+002,8.478225e+001
6.161548e+002,8.552109e+001
6.190476e+002,8.531937e+001
6.219404e+002,8.706161e+001
6.248331e+002,8.574821e+001
6.277258e+002,8.618967e+001
6.306186e+002,8.575213e+001
6.335114e+002,8.619845e+001
6.364041e+002,8.636673e+001
6.392968e+002,8.620200e+001
6.421896e+002,8.616507e+001
6.450823e+002,8.570871e+001
6.479751e+002,8.635783e+001
6.508679e+002,8.595213e+001
6.537606e+002,8.614264e+001
6.566533e+002,8.657642e+001
6.595461e+002,8.641904e+001
6.624388e+002,8.601923e+001
6.653315e+002,8.623042e+001
6.682243e+002,8.671737e+001
6.711171e+002,8.607909e+001
6.740098e+002,8.596465e+001
6.769025e+002,8.552980e+001
6.797953e+002,8.524510e+001
6.826880e+002,8.474033e+001
6.855808e+002,8.425835e+001
6.884735e+002,8.360408e+001
6.913663e+002,8.271411e+001
6.942590e+002,8.169679e+001
6.971518e+002,8.047795e+001
7.000445e+002,7.884624e+001
7.029373e+002,7.693441e+001
7.058300e+002,7.460793e+001
7.087228e+002,7.317125e+001
7.116155e+002,7.372005e+001
7.145082e+002,7.557895e+001
7.174010e+002,7.611571e+001
7.202938e+002,7.512617e+001
7.231865e+002,7.031960e+001
7.260792e+002,6.261958e+001
7.289720e+002,6.022276e+001
7.318647e+002,5.758289e+001
7.347575e+002,6.419067e+001
7.376502e+002,7.180122e+001
7.405430e+002,7.732093e+001
7.434357e+002,8.121645e+001
7.463285e+002,8.365604e+001
7.492212e+002,8.520874e+001
7.521140e+002,8.620035e+001
7.550067e+002,8.693244e+001
7.578995e+002,8.747128e+001
7.607922e+002,8.761285e+001
7.636849e+002,8.710970e+001
7.665777e+002,8.631133e+001
7.694705e+002,8.549098e+001
7.723632e+002,8.474773e+001
7.752559e+002,8.525732e+001
7.781487e+002,8.616144e+001
7.810414e+002,8.681959e+001
7.839341e+002,8.728120e+001
7.868269e+002,8.743342e+001
7.897197e+002,8.754852e+001
7.926124e+002,8.764875e+001
7.955051e+002,8.751723e+001
7.983979e+002,8.760427e+001
8.012906e+002,8.732195e+001
8.041834e+002,8.744218e+001
8.070761e+002,8.732669e+001
8.099689e+002,8.726824e+001
8.128616e+002,8.741454e+001
8.157544e+002,8.732767e+001
8.186472e+002,8.740041e+001
8.215399e+002,8.715854e+001
8.244326e+002,8.693135e+001
8.273254e+002,8.655377e+001
8.302181e+002,8.584670e+001
8.331108e+002,8.454945e+001
8.360036e+002,8.230445e+001
8.388964e+002,7.902848e+001
8.417891e+002,7.978909e+001
8.446818e+002,8.384229e+001
8.475746e+002,8.510362e+001
8.504673e+002,8.543989e+001
8.533601e+002,8.532607e+001
8.562528e+002,8.520196e+001
8.591456e+002,8.524389e+001
8.620383e+002,8.512020e+001
8.649311e+002,8.493250e+001
8.678238e+002,8.484060e+001
8.707166e+002,8.466488e+001
8.736093e+002,8.460957e+001
8.765021e+002,8.458635e+001
8.793948e+002,8.446729e+001
8.822875e+002,8.435632e+001
8.851803e+002,8.412943e+001
8.880731e+002,8.400527e+001
8.909658e+002,8.383553e+001
8.938585e+002,8.377396e+001
8.967513e+002,8.357517e+001
8.996440e+002,8.338875e+001
9.025368e+002,8.301033e+001
9.054295e+002,8.255621e+001
9.083223e+002,8.214314e+001
9.112150e+002,8.141968e+001
9.141078e+002,8.068500e+001
9.170005e+002,7.995107e+001
9.198932e+002,7.897346e+001
9.227860e+002,7.754017e+001
9.256788e+002,7.543217e+001
9.285715e+002,7.248573e+001
9.314642e+002,6.892821e+001
9.343570e+002,6.765367e+001
9.372498e+002,7.075551e+001
9.401425e+002,7.372952e+001
9.430352e+002,7.406840e+001
9.459280e+002,7.261194e+001
9.488207e+002,7.012261e+001
9.517134e+002,6.645016e+001
9.546062e+002,6.225014e+001
9.574990e+002,5.771298e+001
9.603917e+002,5.488004e+001
9.632844e+002,5.848724e+001
9.661772e+002,6.620817e+001
9.690699e+002,7.073300e+001
9.719627e+002,7.311653e+001
9.748554e+002,7.484495e+001
9.777482e+002,7.648492e+001
9.806409e+002,7.746964e+001
9.835337e+002,7.771828e+001
9.864265e+002,7.755604e+001
9.893192e+002,7.733608e+001
9.922119e+002,7.711562e+001
9.951047e+002,7.708162e+001
9.979974e+002,7.701918e+001
1.000890e+003,7.680854e+001
1.003783e+003,7.636433e+001
1.006676e+003,7.589193e+001
1.009568e+003,7.523063e+001
1.012461e+003,7.450403e+001
1.015354e+003,7.362248e+001
1.018247e+003,7.255039e+001
1.021139e+003,7.138504e+001
1.024032e+003,6.975891e+001
1.026925e+003,6.783198e+001
1.029818e+003,6.545718e+001
1.032710e+003,6.279140e+001
1.035603e+003,5.927581e+001
1.038496e+003,5.514635e+001
1.041389e+003,5.083382e+001
1.044281e+003,4.754249e+001
1.047174e+003,4.873271e+001
1.050067e+003,5.621210e+001
1.052960e+003,6.376407e+001
1.055852e+003,6.835740e+001
1.058745e+003,6.940874e+001
1.061638e+003,6.741179e+001
1.064531e+003,6.471136e+001
1.067423e+003,6.600446e+001
1.070316e+003,7.032597e+001
1.073209e+003,7.254012e+001
1.076102e+003,7.267909e+001
1.078994e+003,7.133702e+001
1.081887e+003,6.912485e+001
1.084780e+003,6.670580e+001
1.087673e+003,6.424712e+001
1.090565e+003,6.220352e+001
1.093458e+003,6.090088e+001
1.096351e+003,6.024029e+001
1.099244e+003,5.957552e+001
1.102136e+003,5.808123e+001
1.105029e+003,5.570900e+001
1.107922e+003,5.451581e+001
1.110815e+003,5.836433e+001
1.113707e+003,6.480362e+001
1.116600e+003,6.963963e+001
1.119493e+003,7.176832e+001
1.122385e+003,7.123949e+001
1.125278e+003,6.947651e+001
1.128171e+003,6.694103e+001
1.131064e+003,6.396713e+001
1.133957e+003,6.046790e+001
1.136849e+003,5.644140e+001
1.139742e+003,5.191516e+001
1.142635e+003,4.696469e+001
1.145527e+003,4.167197e+001
1.148420e+003,3.659710e+001
1.151313e+003,3.212950e+001
1.154206e+003,2.875953e+001
1.157099e+003,2.653440e+001
1.159991e+003,2.551934e+001
1.162884e+003,2.542095e+001
1.165777e+003,2.594110e+001
1.168669e+003,2.676070e+001
1.171562e+003,2.779609e+001
1.174455e+003,2.892978e+001
1.177348e+003,3.022346e+001
1.180240e+003,3.177727e+001
1.183133e+003,3.303621e+001
1.186026e+003,3.424405e+001
1.188919e+003,3.754147e+001
1.191811e+003,4.321376e+001
1.194704e+003,5.089641e+001
1.197597e+003,5.921204e+001
1.200490e+003,6.586597e+001
1.203382e+003,6.933946e+001
1.206275e+003,7.117729e+001
1.209168e+003,7.204225e+001
1.212061e+003,7.229015e+001
1.214953e+003,7.198869e+001
1.217846e+003,7.122974e+001
1.220739e+003,6.988924e+001
1.223632e+003,6.769616e+001
1.226524e+003,6.398152e+001
1.229417e+003,5.819799e+001
1.232310e+003,5.045165e+001
1.235203e+003,4.298663e+001
1.238095e+003,4.021167e+001
1.240988e+003,4.269504e+001
1.243881e+003,4.771531e+001
1.246774e+003,5.697988e+001
1.249666e+003,6.728581e+001
1.252559e+003,7.317196e+001
1.255452e+003,7.582181e+001
1.258345e+003,7.731387e+001
1.261237e+003,7.841376e+001
1.264130e+003,7.917857e+001
1.267023e+003,7.947124e+001
1.269916e+003,7.932288e+001
1.272808e+003,7.871864e+001
1.275701e+003,7.780016e+001
1.278594e+003,7.677970e+001
1.281487e+003,7.543513e+001
1.284379e+003,7.353061e+001
1.287272e+003,6.986124e+001
1.290165e+003,6.245700e+001
1.293057e+003,5.707875e+001
1.295950e+003,6.184882e+001
1.298843e+003,6.949684e+001
1.301736e+003,7.508000e+001
1.304629e+003,7.794530e+001
1.307521e+003,8.044703e+001
1.310414e+003,8.244827e+001
1.313307e+003,8.376529e+001
1.316200e+003,8.453888e+001
1.319092e+003,8.488276e+001
1.321985e+003,8.485228e+001
1.324878e+003,8.498237e+001
1.327771e+003,8.564764e+001
1.330663e+003,8.653658e+001
1.333556e+003,8.706952e+001
1.336449e+003,8.702911e+001
1.339342e+003,8.635228e+001
1.342234e+003,8.498115e+001
1.345127e+003,8.293475e+001
1.348020e+003,8.013293e+001
1.350912e+003,7.669927e+001
1.353805e+003,7.358234e+001
1.356698e+003,7.088730e+001
1.359591e+003,6.690620e+001
1.362484e+003,6.271842e+001
1.365376e+003,6.099730e+001
1.368269e+003,6.374059e+001
1.371162e+003,6.843650e+001
1.374054e+003,7.097411e+001
1.376947e+003,7.476354e+001
1.379840e+003,8.061928e+001
1.382733e+003,8.416550e+001
1.385625e+003,8.481758e+001
1.388518e+003,8.347070e+001
1.391411e+003,8.098846e+001
1.394304e+003,7.810394e+001
1.397196e+003,7.651284e+001
1.400089e+003,7.945860e+001
1.402982e+003,8.343847e+001
1.405875e+003,8.581775e+001
1.408767e+003,8.507182e+001
1.411660e+003,8.126347e+001
1.414553e+003,7.706606e+001
1.417446e+003,7.572606e+001
1.420338e+003,7.611260e+001
1.423231e+003,8.149338e+001
1.426124e+003,8.625944e+001
1.429017e+003,8.823982e+001
1.431909e+003,8.835767e+001
1.434802e+003,8.747260e+001
1.437695e+003,8.733659e+001
1.440588e+003,8.813181e+001
1.443480e+003,8.865835e+001
1.446373e+003,8.835331e+001
1.449266e+003,8.774639e+001
1.452159e+003,8.668935e+001
1.455051e+003,8.533189e+001
1.457944e+003,8.268861e+001
1.460837e+003,8.171176e+001
1.463730e+003,8.024931e+001
1.466622e+003,8.039561e+001
1.469515e+003,7.673061e+001
1.472408e+003,7.956660e+001
1.475301e+003,8.338256e+001
1.478193e+003,8.430096e+001
1.481086e+003,8.908886e+001
1.483979e+003,9.283677e+001
1.486872e+003,9.454425e+001
1.489764e+003,9.536488e+001
1.492657e+003,9.577557e+001
1.495550e+003,9.610979e+001
1.498443e+003,9.626889e+001
1.501335e+003,9.630405e+001
1.504228e+003,9.646556e+001
1.507121e+003,9.706087e+001
1.510014e+003,9.669011e+001
1.512906e+003,9.665373e+001
1.515799e+003,9.681939e+001
1.518692e+003,9.678066e+001
1.521584e+003,9.697444e+001
1.524477e+003,9.693148e+001
1.527370e+003,9.686015e+001
1.530263e+003,9.684361e+001
1.533156e+003,9.686452e+001
1.536048e+003,9.682273e+001
1.538941e+003,9.699802e+001
1.541834e+003,9.700689e+001
1.544726e+003,9.696490e+001
1.547619e+003,9.684296e+001
1.550512e+003,9.691697e+001
1.553405e+003,9.683331e+001
1.556297e+003,9.684826e+001
1.559190e+003,9.733855e+001
1.562083e+003,9.679832e+001
1.564976e+003,9.678929e+001
1.567869e+003,9.672903e+001
1.570761e+003,9.669456e+001
1.573654e+003,9.662379e+001
1.576547e+003,9.667896e+001
1.579439e+003,9.648381e+001
1.582332e+003,9.649071e+001
1.585225e+003,9.640692e+001
1.588118e+003,9.637460e+001
1.591010e+003,9.627065e+001
1.593903e+003,9.625475e+001
1.596796e+003,9.607281e+001
1.599689e+003,9.596715e+001
1.602581e+003,9.588240e+001
1.605474e+003,9.565303e+001
1.608367e+003,9.554957e+001
1.611260e+003,9.526034e+001
1.614152e+003,9.513628e+001
1.617045e+003,9.515294e+001
1.619938e+003,9.478966e+001
1.622831e+003,9.467039e+001
1.625723e+003,9.436753e+001
1.628616e+003,9.411451e+001
1.631509e+003,9.390015e+001
1.634402e+003,9.377908e+001
1.637294e+003,9.367928e+001
1.640187e+003,9.339083e+001
1.643080e+003,9.330089e+001
1.645973e+003,9.311239e+001
1.648865e+003,9.284960e+001
1.651758e+003,9.258817e+001
1.654651e+003,9.216203e+001
1.657544e+003,9.167761e+001
1.660436e+003,9.110929e+001
1.663329e+003,9.054387e+001
1.666222e+003,8.960551e+001
1.669115e+003,8.878649e+001
1.672007e+003,8.743309e+001
1.674900e+003,8.599682e+001
1.677793e+003,8.390014e+001
1.680686e+003,8.141866e+001
1.683578e+003,7.942572e+001
1.686471e+003,7.699665e+001
1.689364e+003,7.516107e+001
1.692257e+003,7.346119e+001
1.695149e+003,7.173407e+001
1.698042e+003,6.901435e+001
1.700935e+003,6.559849e+001
1.703828e+003,6.225140e+001
1.706720e+003,5.699036e+001
1.709613e+003,5.032622e+001
1.712506e+003,4.126630e+001
1.715399e+003,3.004775e+001
1.718291e+003,2.007221e+001
1.721184e+003,1.749466e+001
1.724077e+003,2.265916e+001
1.726969e+003,3.195509e+001
1.729862e+003,3.916378e+001
1.732755e+003,4.400511e+001
1.735648e+003,5.202168e+001
1.738541e+003,5.846835e+001
1.741433e+003,6.758427e+001
1.744326e+003,7.638930e+001
1.747219e+003,8.319402e+001
1.750111e+003,8.774043e+001
1.753004e+003,9.073082e+001
1.755897e+003,9.218351e+001
1.758790e+003,9.318365e+001
1.761682e+003,9.385862e+001
1.764575e+003,9.412788e+001
1.767468e+003,9.450790e+001
1.770361e+003,9.483345e+001
1.773253e+003,9.534350e+001
1.776146e+003,9.556984e+001
1.779039e+003,9.583464e+001
1.781932e+003,9.607985e+001
1.784824e+003,9.637012e+001
1.787717e+003,9.661752e+001
1.790610e+003,9.681062e+001
1.793503e+003,9.705655e+001
1.796395e+003,9.714509e+001
1.799288e+003,9.736428e+001
1.802181e+003,9.750816e+001
1.805074e+003,9.758376e+001
1.807966e+003,9.765030e+001
1.810859e+003,9.785236e+001
1.813752e+003,9.794411e+001
1.816645e+003,9.803915e+001
1.819537e+003,9.803526e+001
1.822430e+003,9.803273e+001
1.825323e+003,9.812517e+001
1.828216e+003,9.824692e+001
1.831108e+003,9.821523e+001
1.834001e+003,9.827673e+001
1.836894e+003,9.817754e+001
1.839787e+003,9.819592e+001
1.842679e+003,9.826897e+001
1.845572e+003,9.829715e+001
1.848465e+003,9.823581e+001
1.851358e+003,9.838944e+001
1.854250e+003,9.841411e+001
1.857143e+003,9.844767e+001
1.860036e+003,9.851145e+001
1.862929e+003,9.860157e+001
1.865821e+003,9.857751e+001
1.868714e+003,9.846930e+001
1.871607e+003,9.839298e+001
1.874500e+003,9.850871e+001
1.877392e+003,9.856194e+001
1.880285e+003,9.850002e+001
1.883178e+003,9.843243e+001
1.886071e+003,9.847199e+001
1.888963e+003,9.857093e+001
1.891856e+003,9.852871e+001
1.894749e+003,9.849501e+001
1.897642e+003,9.842812e+001
1.900534e+003,9.845072e+001
1.903427e+003,9.839610e+001
1.906320e+003,9.845116e+001
1.909213e+003,9.833671e+001
1.912105e+003,9.832190e+001
1.914998e+003,9.834786e+001
1.917891e+003,9.822774e+001
1.920784e+003,9.819688e+001
1.923676e+003,9.855042e+001
1.926569e+003,9.840631e+001
1.929462e+003,9.830209e+001
1.932354e+003,9.852814e+001
1.935247e+003,9.856782e+001
1.938140e+003,9.870045e+001
1.941033e+003,9.847280e+001
1.943926e+003,9.851774e+001
1.946818e+003,9.849895e+001
1.949711e+003,9.847495e+001
1.952604e+003,9.852250e+001
1.955496e+003,9.875141e+001
1.958389e+003,9.865138e+001
1.961282e+003,9.850243e+001
1.964175e+003,9.847153e+001
1.967068e+003,9.866264e+001
1.969960e+003,9.857307e+001
1.972853e+003,9.854090e+001
1.975746e+003,9.869591e+001
1.978638e+003,9.796987e+001
1.981531e+003,9.838699e+001
1.984424e+003,9.833736e+001
1.987317e+003,9.840539e+001
1.990209e+003,9.846793e+001
1.993102e+003,9.838273e+001
1.995995e+003,9.857113e+001
1.998888e+003,9.843635e+001
2.001780e+003,9.830543e+001
2.004673e+003,9.882133e+001
2.007566e+003,9.835018e+001
2.010459e+003,9.826927e+001
2.013351e+003,9.824898e+001
2.016244e+003,9.846677e+001
2.019137e+003,9.869755e+001
2.022030e+003,9.831273e+001
2.024922e+003,9.829819e+001
2.027815e+003,9.819768e+001
2.030708e+003,9.819473e+001
2.033601e+003,9.827460e+001
2.036493e+003,9.828564e+001
2.039386e+003,9.825403e+001
2.042279e+003,9.807841e+001
2.045172e+003,9.832243e+001
2.048064e+003,9.816302e+001
2.050957e+003,9.803850e+001
2.053850e+003,9.828503e+001
2.056743e+003,9.842937e+001
2.059635e+003,9.827566e+001
2.062528e+003,9.831433e+001
2.065421e+003,9.824679e+001
2.068314e+003,9.818103e+001
2.071206e+003,9.804041e+001
2.074099e+003,9.810619e+001
2.076992e+003,9.808185e+001
2.079885e+003,9.796999e+001
2.082777e+003,9.810298e+001
2.085670e+003,9.816185e+001
2.088563e+003,9.817036e+001
2.091456e+003,9.809754e+001
2.094348e+003,9.814564e+001
2.097241e+003,9.784495e+001
2.100134e+003,9.802717e+001
2.103027e+003,9.792498e+001
2.105919e+003,9.816560e+001
2.108812e+003,9.820838e+001
2.111705e+003,9.794321e+001
2.114598e+003,9.818691e+001
2.117490e+003,9.840726e+001
2.120383e+003,9.851185e+001
2.123276e+003,9.840289e+001
2.126168e+003,9.861297e+001
2.129061e+003,9.865310e+001
2.131954e+003,9.875459e+001
2.134847e+003,9.879710e+001
2.137740e+003,9.867784e+001
2.140632e+003,9.847771e+001
2.143525e+003,9.870763e+001
2.146418e+003,9.887948e+001
2.149311e+003,9.849701e+001
2.152203e+003,9.884288e+001
2.155096e+003,9.883227e+001
2.157989e+003,9.884152e+001
2.160882e+003,9.801105e+001
2.163774e+003,9.806669e+001
2.166667e+003,9.805796e+001
2.169560e+003,9.842430e+001
2.172452e+003,9.868075e+001
2.175345e+003,9.849159e+001
2.178238e+003,9.844574e+001
2.181131e+003,9.850701e+001
2.184023e+003,9.854768e+001
2.186916e+003,9.830237e+001
2.189809e+003,9.845305e+001
2.192702e+003,9.824490e+001
2.195594e+003,9.855449e+001
2.198487e+003,9.841719e+001
2.201380e+003,9.835784e+001
2.204273e+003,9.856108e+001
2.207166e+003,9.853943e+001
2.210058e+003,9.846774e+001
2.212951e+003,9.858032e+001
2.215844e+003,9.830517e+001
2.218736e+003,9.851182e+001
2.221629e+003,9.833740e+001
2.224522e+003,9.849297e+001
2.227415e+003,9.857046e+001
2.230307e+003,9.854290e+001
2.233200e+003,9.852399e+001
2.236093e+003,9.818428e+001
2.238986e+003,9.845403e+001
2.241878e+003,9.847691e+001
2.244771e+003,9.857923e+001
2.247664e+003,9.849905e+001
2.250557e+003,9.853586e+001
2.253449e+003,9.838353e+001
2.256342e+003,9.844991e+001
2.259235e+003,9.847955e+001
2.262128e+003,9.832637e+001
2.265020e+003,9.847623e+001
2.267913e+003,9.840173e+001
2.270806e+003,9.839950e+001
2.273699e+003,9.845800e+001
2.276591e+003,9.839345e+001
2.279484e+003,9.838280e+001
2.282377e+003,9.815961e+001
2.285270e+003,9.812399e+001
2.288162e+003,9.818839e+001
2.291055e+003,9.821713e+001
2.293948e+003,9.839391e+001
2.296841e+003,9.819106e+001
2.299733e+003,9.832204e+001
2.302626e+003,9.835905e+001
2.305519e+003,9.824973e+001
2.308412e+003,9.818144e+001
2.311304e+003,9.820452e+001
2.314197e+003,9.818578e+001
2.317090e+003,9.801701e+001
2.319983e+003,9.800914e+001
2.322875e+003,9.790651e+001
2.325768e+003,9.802841e+001
2.328661e+003,9.823602e+001
2.331553e+003,9.812782e+001
2.334446e+003,9.815479e+001
2.337339e+003,9.800507e+001
2.340232e+003,9.797278e+001
2.343125e+003,9.793858e+001
2.346017e+003,9.817838e+001
2.348910e+003,9.815776e+001
2.351803e+003,9.808951e+001
2.354696e+003,9.820081e+001
2.357588e+003,9.798769e+001
2.360481e+003,9.830459e+001
2.363374e+003,9.819517e+001
2.366267e+003,9.850994e+001
2.369159e+003,9.826032e+001
2.372052e+003,9.843987e+001
2.374945e+003,9.846420e+001
2.377837e+003,9.868656e+001
2.380730e+003,9.858669e+001
2.383623e+003,9.867380e+001
2.386516e+003,9.865792e+001
2.389408e+003,9.872021e+001
2.392301e+003,9.861105e+001
2.395194e+003,9.862526e+001
2.398087e+003,9.864433e+001
2.400979e+003,9.858557e+001
2.403872e+003,9.862538e+001
2.406765e+003,9.854404e+001
2.409658e+003,9.841511e+001
2.412551e+003,9.838696e+001
2.415443e+003,9.848039e+001
2.418336e+003,9.845427e+001
2.421229e+003,9.846258e+001
2.424121e+003,9.857649e+001
2.427014e+003,9.859579e+001
2.429907e+003,9.866231e+001
2.432800e+003,9.851531e+001
2.435692e+003,9.861782e+001
2.438585e+003,9.858587e+001
2.441478e+003,9.859156e+001
2.444371e+003,9.859280e+001
2.447263e+003,9.857991e+001
2.450156e+003,9.865386e+001
2.453049e+003,9.869022e+001
2.455942e+003,9.857375e+001
2.458834e+003,9.864924e+001
2.461727e+003,9.858324e+001
2.464620e+003,9.859997e+001
2.467513e+003,9.857961e+001
2.470405e+003,9.865599e+001
2.473298e+003,9.856584e+001
2.476191e+003,9.856580e+001
2.479084e+003,9.853167e+001
2.481976e+003,9.856436e+001
2.484869e+003,9.856251e+001
2.487762e+003,9.864546e+001
2.490655e+003,9.856777e+001
2.493547e+003,9.861938e+001
2.496440e+003,9.862672e+001
2.499333e+003,9.859547e+001
2.502226e+003,9.856373e+001
2.505118e+003,9.871994e+001
2.508011e+003,9.868581e+001
2.510904e+003,9.863378e+001
2.513797e+003,9.856884e+001
2.516689e+003,9.866514e+001
2.519582e+003,9.868459e+001
2.522475e+003,9.849291e+001
2.525368e+003,9.856506e+001
2.528260e+003,9.855804e+001
2.531153e+003,9.845685e+001
2.534046e+003,9.841882e+001
2.536938e+003,9.838309e+001
2.539831e+003,9.835915e+001
2.542724e+003,9.850827e+001
2.545617e+003,9.848901e+001
2.548510e+003,9.858781e+001
2.551402e+003,9.858043e+001
2.554295e+003,9.855973e+001
2.557188e+003,9.857068e+001
2.560081e+003,9.851709e+001
2.562973e+003,9.855872e+001
2.565866e+003,9.844419e+001
2.568759e+003,9.847773e+001
2.571652e+003,9.846857e+001
2.574544e+003,9.850473e+001
2.577437e+003,9.842213e+001
2.580330e+003,9.838722e+001
2.583222e+003,9.849118e+001
2.586115e+003,9.846092e+001
2.589008e+003,9.845884e+001
2.591901e+003,9.844473e+001
2.594793e+003,9.849374e+001
2.597686e+003,9.836538e+001
2.600579e+003,9.845746e+001
2.603472e+003,9.841581e+001
2.606365e+003,9.842484e+001
2.609257e+003,9.847251e+001
2.612150e+003,9.835645e+001
2.615043e+003,9.843283e+001
2.617936e+003,9.836281e+001
2.620828e+003,9.834689e+001
2.623721e+003,9.841286e+001
2.626614e+003,9.830389e+001
2.629506e+003,9.835841e+001
2.632399e+003,9.829124e+001
2.635292e+003,9.823408e+001
2.638185e+003,9.828397e+001
2.641077e+003,9.823996e+001
2.643970e+003,9.815973e+001
2.646863e+003,9.822477e+001
2.649756e+003,9.819353e+001
2.652648e+003,9.814146e+001
2.655541e+003,9.821634e+001
2.658434e+003,9.819199e+001
2.661327e+003,9.820928e+001
2.664219e+003,9.823988e+001
2.667112e+003,9.825323e+001
2.670005e+003,9.827708e+001
2.672898e+003,9.827876e+001
2.675790e+003,9.817713e+001
2.678683e+003,9.827294e+001
2.681576e+003,9.826151e+001
2.684469e+003,9.815309e+001
2.687361e+003,9.822750e+001
2.690254e+003,9.819386e+001
2.693147e+003,9.822206e+001
2.696040e+003,9.816793e+001
2.698932e+003,9.818886e+001
2.701825e+003,9.823509e+001
2.704718e+003,9.816360e+001
2.707611e+003,9.817340e+001
2.710503e+003,9.814922e+001
2.713396e+003,9.814893e+001
2.716289e+003,9.814719e+001
2.719182e+003,9.812567e+001
2.722074e+003,9.811452e+001
2.724967e+003,9.813450e+001
2.727860e+003,9.811942e+001
2.730753e+003,9.808475e+001
2.733645e+003,9.808102e+001
2.736538e+003,9.803961e+001
2.739431e+003,9.811310e+001
2.742323e+003,9.803940e+001
2.745216e+003,9.796527e+001
2.748109e+003,9.791032e+001
2.751002e+003,9.796763e+001
2.753895e+003,9.794222e+001
2.756787e+003,9.790979e+001
2.759680e+003,9.792825e+001
2.762573e+003,9.795085e+001
2.765466e+003,9.789083e+001
2.768358e+003,9.783188e+001
2.771251e+003,9.779839e+001
2.774144e+003,9.773594e+001
2.777037e+003,9.779117e+001
2.779929e+003,9.779101e+001
2.782822e+003,9.768250e+001
2.785715e+003,9.770497e+001
2.788607e+003,9.758632e+001
2.791500e+003,9.761658e+001
2.794393e+003,9.757303e+001
2.797286e+003,9.743912e+001
2.800178e+003,9.735995e+001
2.803071e+003,9.729376e+001
2.805964e+003,9.723022e+001
2.808857e+003,9.707359e+001
2.811750e+003,9.696870e+001
2.814642e+003,9.677594e+001
2.817535e+003,9.652374e+001
2.820428e+003,9.643690e+001
2.823321e+003,9.612791e+001
2.826213e+003,9.595158e+001
2.829106e+003,9.572893e+001
2.831999e+003,9.551753e+001
2.834891e+003,9.517342e+001
2.837784e+003,9.462291e+001
2.840677e+003,9.399135e+001
2.843570e+003,9.305090e+001
2.846462e+003,9.188273e+001
2.849355e+003,9.022678e+001
2.852248e+003,8.831535e+001
2.855141e+003,8.614037e+001
2.858033e+003,8.393120e+001
2.860926e+003,8.191650e+001
2.863819e+003,8.060004e+001
2.866712e+003,8.079697e+001
2.869604e+003,8.216621e+001
2.872497e+003,8.430267e+001
2.875390e+003,8.655070e+001
2.878283e+003,8.791562e+001
2.881175e+003,8.864928e+001
2.884068e+003,8.885428e+001
2.886961e+003,8.813706e+001
2.889854e+003,8.665974e+001
2.892746e+003,8.519327e+001
2.895639e+003,8.470005e+001
2.898532e+003,8.532122e+001
2.901425e+003,8.542471e+001
2.904317e+003,8.469980e+001
2.907210e+003,8.387234e+001
2.910103e+003,8.304456e+001
2.912996e+003,8.231171e+001
2.915888e+003,8.138609e+001
2.918781e+003,8.011588e+001
2.921674e+003,7.876192e+001
2.924567e+003,7.754079e+001
2.927459e+003,7.671551e+001
2.930352e+003,7.576913e+001
2.933245e+003,7.444749e+001
2.936137e+003,7.351695e+001
2.939030e+003,7.294773e+001
2.941923e+003,7.252863e+001
2.944816e+003,7.248934e+001
2.947708e+003,7.329549e+001
2.950601e+003,7.482643e+001
2.953494e+003,7.622623e+001
2.956387e+003,7.762619e+001
2.959280e+003,7.982110e+001
2.962172e+003,8.245159e+001
2.965065e+003,8.456416e+001
2.967958e+003,8.666438e+001
2.970851e+003,8.866676e+001
2.973743e+003,9.050717e+001
2.976636e+003,9.201466e+001
2.979529e+003,9.322523e+001
2.982422e+003,9.421851e+001
2.985314e+003,9.497646e+001
2.988207e+003,9.562919e+001
2.991100e+003,9.614172e+001
2.993992e+003,9.660836e+001
2.996885e+003,9.685580e+001
2.999778e+003,9.711817e+001
3.002671e+003,9.743201e+001
3.005563e+003,9.756004e+001
3.008456e+003,9.774358e+001
3.011349e+003,9.793686e+001
3.014242e+003,9.796008e+001
3.017135e+003,9.797918e+001
3.020027e+003,9.803798e+001
3.022920e+003,9.812943e+001
3.025813e+003,9.810474e+001
3.028706e+003,9.813493e+001
3.031598e+003,9.816277e+001
3.034491e+003,9.828711e+001
3.037384e+003,9.833104e+001
3.040276e+003,9.836418e+001
3.043169e+003,9.819196e+001
3.046062e+003,9.827711e+001
3.048955e+003,9.847358e+001
3.051847e+003,9.841986e+001
3.054740e+003,9.836767e+001
3.057633e+003,9.835896e+001
3.060526e+003,9.839587e+001
3.063418e+003,9.836337e+001
3.066311e+003,9.839452e+001
3.069204e+003,9.840295e+001
3.072097e+003,9.850584e+001
3.074990e+003,9.836258e+001
3.077882e+003,9.835083e+001
3.080775e+003,9.850217e+001
3.083668e+003,9.839138e+001
3.086560e+003,9.847639e+001
3.089453e+003,9.850931e+001
3.092346e+003,9.849302e+001
3.095239e+003,9.846976e+001
3.098131e+003,9.850256e+001
3.101024e+003,9.849931e+001
3.103917e+003,9.856635e+001
3.106810e+003,9.842266e+001
3.109702e+003,9.846609e+001
3.112595e+003,9.851879e+001
3.115488e+003,9.849547e+001
3.118381e+003,9.860914e+001
3.121273e+003,9.846386e+001
3.124166e+003,9.846506e+001
3.127059e+003,9.849588e+001
3.129952e+003,9.862950e+001
3.132844e+003,9.859344e+001
3.135737e+003,9.858237e+001
3.138630e+003,9.851569e+001
3.141522e+003,9.855163e+001
3.144415e+003,9.850864e+001
3.147308e+003,9.871115e+001
3.150201e+003,9.857751e+001
3.153094e+003,9.848056e+001
3.155986e+003,9.856581e+001
3.158879e+003,9.855373e+001
3.161772e+003,9.864069e+001
3.164665e+003,9.856046e+001
3.167557e+003,9.861781e+001
3.170450e+003,9.851615e+001
3.173343e+003,9.857449e+001
3.176236e+003,9.849086e+001
3.179128e+003,9.858508e+001
3.182021e+003,9.868200e+001
3.184914e+003,9.856222e+001
3.187806e+003,9.869876e+001
3.190699e+003,9.858624e+001
3.193592e+003,9.853110e+001
3.196485e+003,9.859664e+001
3.199377e+003,9.859453e+001
3.202270e+003,9.860767e+001
3.205163e+003,9.852289e+001
3.208056e+003,9.865969e+001
3.210948e+003,9.863819e+001
3.213841e+003,9.863062e+001
3.216734e+003,9.869920e+001
3.219627e+003,9.859351e+001
3.222520e+003,9.858660e+001
3.225412e+003,9.867467e+001
3.228305e+003,9.869048e+001
3.231198e+003,9.856323e+001
3.234091e+003,9.864441e+001
3.236983e+003,9.870977e+001
3.239876e+003,9.854181e+001
3.242769e+003,9.873354e+001
3.245661e+003,9.863332e+001
3.248554e+003,9.870496e+001
3.251447e+003,9.850312e+001
3.254340e+003,9.858749e+001
3.257232e+003,9.861040e+001
3.260125e+003,9.869228e+001
3.263018e+003,9.863301e+001
3.265911e+003,9.864024e+001
3.268803e+003,9.868584e+001
3.271696e+003,9.858744e+001
3.274589e+003,9.861416e+001
3.277482e+003,9.854251e+001
3.280375e+003,9.864664e+001
3.283267e+003,9.857366e+001
3.286160e+003,9.859509e+001
3.289053e+003,9.857382e+001
3.291945e+003,9.867924e+001
3.294838e+003,9.862675e+001
3.297731e+003,9.857523e+001
3.300624e+003,9.867112e+001
3.303516e+003,9.862833e+001
3.306409e+003,9.874259e+001
3.309302e+003,9.864638e+001
3.312195e+003,9.868583e+001
3.315087e+003,9.857506e+001
3.317980e+003,9.856606e+001
3.320873e+003,9.859525e+001
3.323766e+003,9.864530e+001
3.326658e+003,9.870498e+001
3.329551e+003,9.859730e+001
3.332444e+003,9.854938e+001
3.335337e+003,9.861168e+001
3.338229e+003,9.863367e+001
3.341122e+003,9.866573e+001
3.344015e+003,9.859225e+001
3.346907e+003,9.869099e+001
3.349800e+003,9.862879e+001
3.352693e+003,9.861825e+001
3.355586e+003,9.857288e+001
3.358479e+003,9.864790e+001
3.361371e+003,9.871906e+001
3.364264e+003,9.863544e+001
3.367157e+003,9.862061e+001
3.370050e+003,9.861482e+001
3.372942e+003,9.867183e+001
3.375835e+003,9.868930e+001
3.378728e+003,9.874723e+001
3.381621e+003,9.866970e+001
3.384513e+003,9.853659e+001
3.387406e+003,9.865240e+001
3.390299e+003,9.862374e+001
3.393191e+003,9.863908e+001
3.396084e+003,9.865662e+001
3.398977e+003,9.861796e+001
3.401870e+003,9.851356e+001
3.404762e+003,9.862964e+001
3.407655e+003,9.857494e+001
3.410548e+003,9.858427e+001
3.413441e+003,9.845265e+001
3.416333e+003,9.846846e+001
3.419226e+003,9.849997e+001
3.422119e+003,9.836571e+001
3.425012e+003,9.834392e+001
3.427905e+003,9.815823e+001
3.430797e+003,9.806694e+001
3.433690e+003,9.791454e+001
3.436583e+003,9.776454e+001
3.439475e+003,9.792246e+001
3.442368e+003,9.791199e+001
3.445261e+003,9.798107e+001
3.448154e+003,9.811047e+001
3.451046e+003,9.812408e+001
3.453939e+003,9.821798e+001
3.456832e+003,9.824435e+001
3.459725e+003,9.830467e+001
3.462617e+003,9.848738e+001
3.465510e+003,9.854095e+001
3.468403e+003,9.841080e+001
3.471296e+003,9.863823e+001
3.474188e+003,9.860184e+001
3.477081e+003,9.863181e+001
3.479974e+003,9.862721e+001
3.482867e+003,9.872555e+001
3.485760e+003,9.869238e+001
3.488652e+003,9.872675e+001
3.491545e+003,9.869024e+001
3.494438e+003,9.858548e+001
3.497330e+003,9.865318e+001
3.500223e+003,9.871309e+001
3.503116e+003,9.874365e+001
3.506009e+003,9.881791e+001
3.508901e+003,9.872681e+001
3.511794e+003,9.871671e+001
3.514687e+003,9.878296e+001
3.517580e+003,9.868071e+001
3.520472e+003,9.875484e+001
3.523365e+003,9.886132e+001
3.526258e+003,9.872942e+001
3.529151e+003,9.861512e+001
3.532043e+003,9.873146e+001
3.534936e+003,9.880255e+001
3.537829e+003,9.858642e+001
3.540722e+003,9.864862e+001
3.543614e+003,9.872387e+001
3.546507e+003,9.862140e+001
3.549400e+003,9.872713e+001
3.552292e+003,9.867604e+001
3.555185e+003,9.867483e+001
3.558078e+003,9.875711e+001
3.560971e+003,9.874616e+001
3.563864e+003,9.873683e+001
3.566756e+003,9.902920e+001
3.569649e+003,9.890604e+001
3.572542e+003,9.881174e+001
3.575435e+003,9.894250e+001
3.578327e+003,9.885965e+001
3.581220e+003,9.890476e+001
3.584113e+003,9.892875e+001
3.587006e+003,9.895672e+001
3.589898e+003,9.899261e+001
3.592791e+003,9.896127e+001
3.595684e+003,9.894546e+001
3.598576e+003,9.889891e+001
3.601469e+003,9.877025e+001
3.604362e+003,9.885925e+001
3.607255e+003,9.880930e+001
3.610147e+003,9.899675e+001
3.613040e+003,9.900032e+001
3.615933e+003,9.904374e+001
3.618826e+003,9.906208e+001
3.621719e+003,9.895751e+001
3.624611e+003,9.904764e+001
3.627504e+003,9.917566e+001
3.630397e+003,9.899222e+001
3.633290e+003,9.906385e+001
3.636182e+003,9.886313e+001
3.639075e+003,9.898470e+001
3.641968e+003,9.907449e+001
3.644860e+003,9.917374e+001
3.647753e+003,9.939340e+001
3.650646e+003,9.930335e+001
3.653539e+003,9.902656e+001
3.656431e+003,9.927037e+001
3.659324e+003,9.908615e+001
3.662217e+003,9.906271e+001
3.665110e+003,9.914011e+001
3.668002e+003,9.917091e+001
3.670895e+003,9.918743e+001
3.673788e+003,9.911393e+001
3.676681e+003,9.916213e+001
3.679573e+003,9.909982e+001
3.682466e+003,9.910168e+001
3.685359e+003,9.913453e+001
3.688252e+003,9.945687e+001
3.691145e+003,9.926646e+001
3.694037e+003,9.919530e+001
3.696930e+003,9.922141e+001
3.699823e+003,9.922710e+001
3.702715e+003,9.917612e+001
3.705608e+003,9.912822e+001
3.708501e+003,9.931996e+001
3.711394e+003,9.956933e+001
3.714286e+003,9.912083e+001
3.717179e+003,9.930752e+001
3.720072e+003,9.926793e+001
3.722965e+003,9.911515e+001
3.725857e+003,9.915144e+001
3.728750e+003,9.916702e+001
3.731643e+003,9.913495e+001
3.734536e+003,9.915755e+001
3.737428e+003,9.951254e+001
3.740321e+003,9.927654e+001
3.743214e+003,9.942216e+001
3.746107e+003,9.930343e+001
3.748999e+003,9.932082e+001
3.751892e+003,9.950996e+001
3.754785e+003,9.923877e+001
3.757677e+003,9.926094e+001
3.760570e+003,9.919623e+001
3.763463e+003,9.909345e+001
3.766356e+003,9.919420e+001
3.769249e+003,9.930186e+001
3.772141e+003,9.916959e+001
3.775034e+003,9.922696e+001
3.777927e+003,9.924337e+001
3.780820e+003,9.918089e+001
3.783712e+003,9.925645e+001
3.786605e+003,9.916972e+001
3.789498e+003,9.923721e+001
3.792391e+003,9.916437e+001
3.795283e+003,9.911517e+001
3.798176e+003,9.928440e+001
3.801069e+003,9.925837e+001
3.803961e+003,9.932119e+001
3.806854e+003,9.951904e+001
3.809747e+003,9.926915e+001
3.812640e+003,9.920553e+001
3.815532e+003,9.968449e+001
3.818425e+003,9.935072e+001
3.821318e+003,9.923862e+001
3.824211e+003,9.916547e+001
3.827104e+003,9.927787e+001
3.829996e+003,9.930476e+001
3.832889e+003,9.924723e+001
3.835782e+003,9.927956e+001
3.838675e+003,9.937759e+001
3.841567e+003,9.918767e+001
3.844460e+003,9.920107e+001
3.847353e+003,9.919305e+001
3.850245e+003,9.938228e+001
3.853138e+003,9.960923e+001
3.856031e+003,9.914075e+001
3.858924e+003,9.912184e+001
3.861816e+003,9.910060e+001
3.864709e+003,9.943920e+001
3.867602e+003,9.932294e+001
3.870495e+003,9.963737e+001
3.873387e+003,9.934885e+001
3.876280e+003,9.902647e+001
3.879173e+003,9.909923e+001
3.882066e+003,9.913104e+001
3.884958e+003,9.934277e+001
3.887851e+003,9.921661e+001
3.890744e+003,9.929030e+001
3.893637e+003,9.920429e+001
3.896529e+003,9.908089e+001
3.899422e+003,9.922749e+001
3.902315e+003,9.910987e+001
3.905208e+003,9.939239e+001
3.908100e+003,9.912067e+001
3.910993e+003,9.930342e+001
3.913886e+003,9.925998e+001
3.916779e+003,9.930912e+001
3.919671e+003,9.941655e+001
3.922564e+003,9.926712e+001
3.925457e+003,9.930860e+001
3.928350e+003,9.916602e+001
3.931242e+003,9.924957e+001
3.934135e+003,9.914523e+001
3.937028e+003,9.913863e+001
3.939921e+003,9.933700e+001
3.942813e+003,9.939027e+001
3.945706e+003,9.921434e+001
3.948599e+003,9.925581e+001
3.951492e+003,9.922144e+001
3.954384e+003,9.923068e+001
3.957277e+003,9.926865e+001
3.960170e+003,9.914144e+001
3.963063e+003,9.915538e+001
3.965955e+003,9.906134e+001
3.968848e+003,9.921867e+001
3.971741e+003,9.924037e+001
3.974634e+003,9.921962e+001
3.977526e+003,9.915086e+001
3.980419e+003,9.917244e+001
3.983312e+003,9.911164e+001
3.986205e+003,9.923165e+001
3.989097e+003,9.934788e+001
3.991990e+003,9.915453e+001
3.994883e+003,9.920494e+001
3.997776e+003,9.920445e+001
4.000668e+003,0.000000e+000